// General information: 
//  MT Manager version: 2022.2.0 
//  XDA version: 2022.2.0 build 7381 rev 124627 built on 2023-07-19
// Device information: 
//  DeviceId: 00B44804
//  ProductCode: MTW2-3A7G6
//  Firmware Version: 4.3.5
//  Hardware Version: 2.0.0
// Device settings: 
//  Filter Profile: human(46.1)
//  Option Flags: Orientation Smoother Disabled, Position/Velocity Smoother Disabled, Continuous Zero Rotation Update Disabled, AHS Disabled, ICC Disabled
// Coordinate system: ENU
PacketCounter	SampleTimeFine	Acc_X	Acc_Y	Acc_Z	Gyr_X	Gyr_Y	Gyr_Z	Roll	Pitch	Yaw	Vel_E	Vel_N	Vel_U
28751		3.338503	4.054352	8.949936	0.003907	-0.006823	-0.013627	25.013832	-17.736359	-12.251784			
28752		3.312815	4.042521	8.930848	0.007475	-0.015670	-0.008358	25.009477	-17.741881	-12.253003			
28753		3.382069	4.008301	8.921644	0.002712	-0.011324	-0.005563	25.006891	-17.742888	-12.256452			
28754		3.358972	4.014581	8.918627	0.006860	-0.009140	-0.012564	25.002398	-17.744035	-12.258338			
28755		3.359271	4.015929	8.917907	0.013498	-0.009373	-0.013664	25.007183	-17.742072	-12.265701			
28756		3.338524	4.041467	8.930528	0.015111	-0.009559	-0.013580	25.007640	-17.743243	-12.268324			
28757		3.312254	4.051883	8.961399	0.015294	-0.009048	-0.015014	25.013647	-17.740787	-12.276334			
28758		3.344746	4.060203	8.910368	0.011349	-0.015429	-0.014459	25.012580	-17.744813	-12.280830			
28759		3.340207	4.046623	8.927563	0.017242	-0.015349	-0.007320	25.018910	-17.747496	-12.286242			
28760		3.343656	4.066209	8.942630	0.006305	-0.010674	-0.008260	25.013582	-17.750575	-12.286308			
28761		3.367832	4.061622	8.944474	0.008189	-0.008915	-0.009075	25.014513	-17.749497	-12.291035			
28762		3.365974	4.044339	8.927767	0.007472	-0.015669	-0.008352	25.010294	-17.755201	-12.292330			
28763		3.314136	4.041314	8.940276	0.011152	-0.013585	-0.010518	25.013521	-17.756202	-12.299025			
28764		3.346634	4.070599	8.939519	0.011056	-0.012662	-0.008548	25.011180	-17.760313	-12.299664			
28765		3.339428	4.038418	8.940940	0.012486	-0.013358	-0.007032	25.014570	-17.762045	-12.304395			
28766		3.343324	4.036637	8.905687	0.010609	-0.017472	-0.008722	25.012399	-17.768634	-12.306511			
28767		3.344433	4.037971	8.904666	0.012492	-0.015713	-0.009537	25.016388	-17.770985	-12.313201			
28768		3.345279	4.039353	8.903721	0.011235	-0.012151	-0.009982	25.014404	-17.774566	-12.314631			
28769		3.322275	4.067377	8.950665	0.007468	-0.015668	-0.008349	25.015310	-17.777187	-12.320656			
28770		3.352651	4.078035	8.933873	0.009965	-0.018078	-0.002449	25.011832	-17.785665	-12.319514			
28771		3.333190	4.081266	8.896268	0.006913	-0.014842	-0.001542	25.011219	-17.789510	-12.321612			
28772		3.349906	4.064080	8.950620	0.001891	-0.014798	-0.000353	25.002545	-17.796810	-12.318591			
28773		3.343379	4.009520	8.902120	0.003692	-0.016829	-0.004210	25.000681	-17.801045	-12.322643			
28774		3.409990	3.978547	8.927005	0.007821	-0.012292	-0.008712	24.996631	-17.805083	-12.323514			
28775		3.344673	4.011694	8.900655	0.014288	-0.005899	-0.018870	25.002429	-17.800097	-12.332776			
28776		3.349940	4.050184	8.931681	0.015180	-0.010479	-0.015556	25.003613	-17.801545	-12.336792			
28777		3.355627	4.067114	8.912456	0.011953	-0.010110	-0.015719	25.007870	-17.799512	-12.345400			
28778		3.350387	4.053540	8.929991	0.012221	-0.008167	-0.016618	25.007379	-17.799550	-12.349612			
28779		3.350493	4.055119	8.929234	0.011945	-0.007753	-0.013214	25.011027	-17.796904	-12.356248			
28780		3.332622	4.077140	8.907711	0.009614	-0.011965	-0.010062	25.008282	-17.800551	-12.357703			
28781		3.351611	4.036151	8.877549	0.008175	-0.008914	-0.009074	25.009165	-17.799516	-12.362371			
28782		3.349066	4.040505	8.911177	0.010510	-0.007059	-0.014730	25.007357	-17.799454	-12.365231			
28783		3.346388	4.045066	8.944765	0.011849	-0.006828	-0.011246	25.010541	-17.796813	-12.370547			
28784		3.343999	4.028222	8.928089	0.013281	-0.007521	-0.009730	25.009543	-17.798283	-12.370945			
28785		3.354829	4.060336	8.890574	0.015708	-0.006591	-0.017355	25.015933	-17.794043	-12.379527			
28786		3.380642	4.075013	8.908255	0.011577	0.000712	-0.018330	25.014784	-17.789124	-12.382330			
28787		3.356264	4.082165	8.905333	0.011495	-0.003079	-0.021366	25.019149	-17.782093	-12.392199			
28788		3.353049	4.065399	8.888931	0.008175	-0.001789	-0.019559	25.016471	-17.778250	-12.396698			
28789		3.370627	4.046223	8.909316	0.008534	-0.000771	-0.022428	25.019131	-17.769767	-12.406553			
28790		3.322187	4.079986	8.954380	0.006914	0.001770	-0.020007	25.015553	-17.763943	-12.410388			
28791		3.347875	4.051405	8.872009	0.011752	0.001224	-0.019764	25.019452	-17.755075	-12.418277			
28792		3.330824	4.029394	8.976649	0.019636	-0.000196	-0.017924	25.023030	-17.750908	-12.421025			
28793		3.338302	4.043415	8.923352	0.012825	-0.000486	-0.015379	25.026942	-17.743993	-12.426951			
28794		3.311511	4.053821	8.954510	0.017131	-0.004916	-0.013333	25.028706	-17.743337	-12.428269			
28795		3.319552	4.068039	8.900891	0.022061	-0.006386	-0.015058	25.038309	-17.739567	-12.435515			
28796		3.322069	4.088745	8.915732	0.020355	-0.005279	-0.013171	25.041894	-17.739109	-12.437808			
28797		3.348246	4.103835	8.933085	0.018648	-0.004172	-0.011284	25.048739	-17.735108	-12.442428			
28798		3.345525	4.087520	8.916314	0.017306	-0.004407	-0.014767	25.050870	-17.734011	-12.444447			
28799		3.290055	4.066948	8.913070	0.019010	-0.005514	-0.016653	25.058913	-17.729407	-12.452328			
28800		3.319010	4.078643	8.896240	0.013635	-0.006495	-0.012591	25.058744	-17.729866	-12.454158			
28801		3.361020	4.054321	8.918725	0.013807	-0.003627	-0.011526	25.062804	-17.725531	-12.458759			
28802		3.339596	4.079868	8.931487	0.014526	-0.003955	-0.019765	25.064126	-17.722812	-12.464430			
28803		3.310249	4.072067	8.946694	0.015781	-0.005151	-0.016814	25.070307	-17.717988	-12.472296			
28804		3.310129	4.052497	8.895752	0.017564	-0.002463	-0.015669	25.072597	-17.715433	-12.475293			
28805		3.293832	4.114994	8.940138	0.015601	-0.005659	-0.015378	25.078471	-17.711224	-12.482500			
28806		3.317492	4.111351	8.941766	0.013540	-0.005567	-0.010622	25.077951	-17.711695	-12.482641			
28807		3.320530	4.109308	8.906847	0.006384	-0.009238	-0.007704	25.077546	-17.711212	-12.486574			
28808		3.339277	4.089639	8.927137	0.008161	-0.004188	-0.004061	25.072781	-17.712371	-12.482649			
28809		3.334292	4.075446	8.944988	0.008174	-0.008911	-0.009058	25.073597	-17.711394	-12.487231			
28810		3.313760	4.078492	8.907739	0.006469	-0.007804	-0.007172	25.068672	-17.714029	-12.486577			
28811		3.337774	4.074147	8.909561	0.010049	-0.007148	-0.009880	25.070558	-17.711942	-12.491153			
28812		3.340454	4.093787	8.924795	0.010311	-0.005206	-0.010784	25.068237	-17.712299	-12.492149			
28813		3.322156	4.115395	8.903429	0.006823	-0.006789	-0.010041	25.068269	-17.709991	-12.496716			
28814		3.317103	4.101134	8.921349	0.005125	-0.008044	-0.010653	25.063245	-17.711885	-12.497777			
28815		3.296222	4.125547	8.934392	0.003329	-0.006010	-0.006801	25.060675	-17.709964	-12.500376			
28816		3.315148	4.105425	8.954848	0.001014	-0.010221	-0.003638	25.052352	-17.714685	-12.497901			
28817		3.318519	4.102228	8.920319	-0.002040	-0.006993	-0.002736	25.046105	-17.714266	-12.498530			
28818		3.332494	4.045119	8.909109	0.004147	-0.009652	-0.001511	25.039168	-17.719076	-12.495351			
28819		3.325434	4.012218	8.911103	0.007640	-0.010431	-0.004752	25.039064	-17.719956	-12.497950			
28820		3.317915	4.085519	8.902971	0.008164	-0.006548	-0.006560	25.034961	-17.721821	-12.497855			
28821		3.349450	4.157795	9.002526	0.004763	-0.006696	-0.005285	25.033004	-17.720638	-12.499790			
28822		3.339899	4.084832	8.938612	0.005765	-0.012193	-0.003927	25.027746	-17.726001	-12.496624			
28823		3.317354	4.047697	8.835307	0.007912	-0.013213	-0.010650	25.028986	-17.726905	-12.503135			
28824		3.365039	4.038276	8.839395	0.010748	-0.005119	-0.015624	25.027948	-17.726366	-12.506145			
28825		3.345989	4.103487	8.918265	0.010736	-0.000394	-0.010630	25.029806	-17.720625	-12.509378			
28826		3.305731	4.192127	9.010739	0.004207	-0.003476	-0.013977	25.024443	-17.719130	-12.513793			
28827		3.314246	4.077095	8.917727	0.001815	-0.011484	-0.013839	25.022576	-17.718373	-12.521595			
28828		3.335740	4.032590	8.853691	0.007435	-0.006195	-0.016314	25.019845	-17.718255	-12.526193			
28829		3.314309	4.057545	8.866688	0.007781	-0.002818	-0.016688	25.021193	-17.712314	-12.533339			
28830		3.334883	4.078421	8.952970	0.007434	-0.006194	-0.016313	25.018614	-17.711985	-12.535722			
28831		3.337274	4.076508	8.918197	0.009658	-0.003417	-0.020009	25.021631	-17.705555	-12.544824			
28832		3.313097	4.083317	8.915307	0.008050	-0.005602	-0.022585	25.020266	-17.703628	-12.553174			
28833		3.315204	4.103125	8.930655	0.007868	-0.003746	-0.018653	25.022053	-17.697701	-12.561617			
28834		3.315015	4.082883	8.880025	0.011007	-0.005535	-0.019024	25.021917	-17.695772	-12.565455			
28835		3.309381	4.069252	8.897930	0.008041	-0.003239	-0.020088	25.023999	-17.689238	-12.574544			
28836		3.348231	4.132515	8.894531	0.010830	-0.006041	-0.017588	25.023463	-17.688113	-12.579898			
28837		3.310774	4.112551	8.962744	0.011957	0.000797	-0.023175	25.027981	-17.678738	-12.589638			
28838		3.281367	4.082706	8.928182	0.011004	-0.005534	-0.019022	25.028021	-17.677167	-12.592213			
28839		3.312698	4.090745	8.877271	0.009301	-0.004429	-0.017136	25.030419	-17.671973	-12.599983			
28840		3.306843	4.098816	8.945299	0.009733	-0.001981	-0.019478	25.029229	-17.669015	-12.607525			
28841		3.311606	4.115148	8.926457	0.004289	-0.004405	-0.015939	25.028549	-17.664104	-12.614635			
28842		3.313913	4.134567	8.941888	0.005816	-0.006016	-0.016389	25.025235	-17.663742	-12.616885			
28843		3.303786	4.083624	8.928206	0.006822	-0.009147	-0.012532	25.025806	-17.662123	-12.623339			
28844		3.301587	4.066212	8.911817	0.006821	-0.009146	-0.012532	25.022409	-17.664541	-12.628916			
28845		3.306773	4.103955	8.942968	0.003764	-0.005924	-0.011632	25.020827	-17.661473	-12.634059			
28846		3.317181	4.134808	8.905763	0.000629	-0.006501	-0.013755	25.014061	-17.661948	-12.636965			
28847		3.306720	4.105146	8.942441	0.000976	-0.005489	-0.016626	25.011671	-17.657448	-12.644715			
28848		3.307003	4.084153	8.891985	0.005124	-0.010404	-0.013140	25.007876	-17.659991	-12.645856			
28849		3.307258	4.084858	8.891566	0.000544	-0.007936	-0.014284	25.005038	-17.657334	-12.652945			
28850		3.309832	4.103884	8.907072	0.002240	-0.006677	-0.013676	24.999319	-17.657608	-12.654661			
28851		3.309499	4.126142	8.956966	-0.002168	-0.003703	-0.016255	24.994924	-17.652282	-12.661743			
28852		3.285692	4.131594	8.954534	-0.002944	-0.007163	-0.011041	24.985706	-17.653662	-12.664709			
28853		3.304855	4.089675	8.925040	-0.000232	-0.011396	-0.009070	24.981821	-17.654075	-12.669828			
28854		3.300463	4.053032	8.893103	-0.000239	-0.009033	-0.006576	24.973837	-17.657321	-12.667174			
28855		3.308347	4.108820	8.940152	0.005027	-0.007109	-0.008682	24.972570	-17.655606	-12.670986			
28856		3.287619	4.132922	8.953213	-0.000495	-0.010974	-0.005669	24.964279	-17.660377	-12.671234			
28857		3.291122	4.129649	8.918619	-0.002364	-0.012741	-0.004841	24.958572	-17.662521	-12.674378			
28858		3.289599	4.111020	8.902543	-0.005672	-0.013826	-0.005527	24.947606	-17.669256	-12.674966			
28859		3.319263	4.120588	8.886291	-0.006773	-0.009768	-0.007419	24.939568	-17.669239	-12.678757			
28860		3.341044	4.118096	8.922908	-0.011950	-0.012621	-0.007276	24.925306	-17.674799	-12.678968			
28861		3.323045	4.137639	8.902261	-0.014398	-0.011173	-0.015140	24.914283	-17.673654	-12.687321			
28862		3.412374	4.184437	8.870272	-0.030264	-0.009849	-0.019321	24.891017	-17.674321	-12.697323			
28863		3.396770	4.093377	8.826685	-0.038401	-0.001876	-0.030213	24.868019	-17.664719	-12.711547			
28864		3.400395	4.043545	8.920554	-0.042568	0.018663	-0.036179	24.838370	-17.646729	-12.723595			
28865		3.300207	3.667795	9.072293	-0.011660	0.023479	-0.048066	24.831693	-17.619662	-12.741163			
28866		3.248574	3.055741	9.196516	0.114142	0.037927	-0.069379	24.896201	-17.583794	-12.760927			
28867		2.927629	2.570840	9.493931	0.327739	0.012040	-0.109074	25.094844	-17.547855	-12.814536			
28868		2.769829	2.044102	9.806194	0.630803	-0.058867	-0.176674	25.479423	-17.535379	-12.923387			
28869		2.786932	1.962492	10.328339	0.908886	-0.186546	-0.401871	26.074200	-17.528256	-13.186783			
28870		2.437708	1.043344	10.866861	1.318762	-0.453577	-0.733989	26.975340	-17.573705	-13.689659			
28871		3.019421	0.189211	10.508203	1.933294	-0.729743	-1.076062	28.311844	-17.654889	-14.463296			
28872		3.220847	0.677136	10.380414	2.607891	-0.878255	-1.424968	30.100104	-17.696245	-15.454055			
28873		2.690231	1.384460	9.816877	3.200807	-1.083818	-1.697132	32.296117	-17.720764	-16.661679			
28874		2.446920	2.555448	9.327059	3.677370	-1.257929	-1.898401	34.807272	-17.721395	-18.021152			
28875		-1.685043	3.612316	8.431085	3.832090	-1.192920	-2.664268	37.513899	-17.369811	-19.733226			
28876		1.472908	4.408774	7.925507	4.364715	-1.471564	-3.115206	40.592555	-16.901211	-21.730459			
28877		4.049954	8.254281	7.543038	4.441943	-1.482602	-2.687361	43.644957	-16.496316	-23.513860			
28878		2.792518	10.423912	7.917599	3.916371	-1.456908	-2.076664	46.296314	-16.247827	-24.997075			
28879		3.057935	11.377299	7.438050	3.251298	-1.350260	-1.470531	48.483935	-16.149487	-26.180086			
28880		3.151366	11.644227	6.797919	2.436629	-1.093641	-1.040461	50.117359	-16.108213	-27.070760			
28881		2.895877	10.293530	5.889483	1.732622	-0.828598	-0.753076	51.288461	-16.073208	-27.733576			
28882		3.017089	8.077563	4.736350	1.462802	-0.536303	-0.618118	52.247230	-15.987320	-28.204723			
28883		2.877208	6.557336	3.585731	1.627887	-0.151522	-0.647916	53.256998	-15.742730	-28.506120			
28884		2.687355	5.813770	3.237154	2.038657	0.195693	-0.819506	54.465642	-15.299864	-28.691766			
28885		2.370861	5.636291	3.248605	2.521819	0.396936	-0.974423	55.939491	-14.710168	-28.824182			
28886		2.243976	6.708071	3.272053	2.917495	0.513469	-1.042734	57.621113	-14.052043	-28.900421			
28887		2.054848	7.957216	3.379301	3.007439	0.560577	-1.042957	59.347348	-13.373523	-28.935966			
28888		2.123075	8.130961	3.186788	2.882041	0.563741	-0.959787	60.986786	-12.738889	-28.921873			
28889		2.052283	8.033798	2.646118	2.714838	0.531679	-0.829023	62.526404	-12.175318	-28.873048			
28890		1.983058	8.268446	2.636949	2.441012	0.512134	-0.764709	63.901603	-11.655238	-28.800156			
28891		2.052077	9.021560	3.012682	1.973952	0.493862	-0.742011	65.011897	-11.148859	-28.722503			
28892		2.379439	8.941917	3.107420	1.385577	0.468967	-0.677431	65.780505	-10.687511	-28.631564			
28893		2.380465	8.207069	2.678736	0.873869	0.474585	-0.619610	66.255828	-10.251958	-28.521426			
28894		2.265675	7.476729	2.517188	0.594671	0.537353	-0.623543	66.562974	-9.804963	-28.373565			
28895		1.890558	7.197967	2.908161	0.485058	0.502755	-0.618130	66.813826	-9.365103	-28.243194			
28896		1.377187	6.937485	2.930608	0.524043	0.359227	-0.649989	67.098300	-8.945651	-28.192592			
28897		1.255485	6.933247	2.791264	0.700868	0.204429	-0.705726	67.501243	-8.526854	-28.236925			
28898		1.046021	15.528639	9.466680	0.500959	-0.301525	-0.289397	67.812872	-8.443027	-28.455875			
28899		1.896193	23.159572	4.707239	-1.320997	-1.244444	0.390723	67.137470	-8.922413	-29.031152			
28900		3.258083	11.887000	3.328507	-0.311955	-0.562793	0.779322	66.970225	-9.462645	-29.149489			
28901		3.335511	11.485828	2.635546	0.345381	-0.392511	0.958524	67.160848	-10.055486	-29.138267			
28902		2.357599	8.800437	4.392082	0.305107	-0.137990	0.713788	67.312292	-10.466856	-29.045571			
28903		2.468073	5.834928	3.649154	0.364769	0.029649	0.180138	67.504882	-10.555077	-28.985054			
28904		3.642536	6.270589	3.493658	0.529823	0.097412	-0.280206	67.802013	-10.389272	-28.988512			
28905		3.330900	7.538945	3.930223	0.614692	0.144434	-0.547090	68.155450	-10.067154	-29.025746			
28906		2.784365	9.645446	4.514487	0.505231	0.159124	-0.574989	68.443074	-9.731845	-29.057128			
28907		1.854365	10.122813	4.508012	0.232302	0.116898	-0.444894	68.575351	-9.469670	-29.084398			
28908		1.993640	9.114072	3.713409	0.308081	-0.018507	-0.222235	68.752773	-9.359531	-29.135054			
28909		2.059737	9.462286	3.895109	0.558775	-0.134892	-0.035336	69.079958	-9.368024	-29.211288			
28910		1.453966	9.057353	4.046488	0.744594	-0.185872	-0.102382	69.517999	-9.355508	-29.326954			
28911		2.051016	9.005547	3.727095	0.910838	-0.154330	-0.223255	70.054660	-9.265674	-29.451588			
28912		1.886362	9.171926	3.488792	1.021092	-0.069226	-0.373990	70.648871	-9.081995	-29.556074			
28913		2.057990	9.290547	3.119757	1.124834	0.059779	-0.473836	71.296156	-8.813918	-29.608656			
28914		2.018360	9.738351	3.147541	1.149330	0.201397	-0.538012	71.944363	-8.489947	-29.589909			
28915		1.796909	10.489555	3.324204	1.096248	0.274455	-0.506620	72.557506	-8.165397	-29.523743			
28916		1.423659	11.551370	3.745103	0.932537	0.253754	-0.385815	73.073059	-7.916319	-29.443185			
28917		1.191071	11.979376	4.065430	0.692844	0.148891	-0.216297	73.457730	-7.772997	-29.392507			
28918		1.269694	12.160714	4.207608	0.453389	0.021758	-0.036308	73.708266	-7.754463	-29.380175			
28919		1.364263	11.954434	4.329347	0.246662	-0.129308	0.117534	73.850800	-7.839784	-29.428760			
28920		1.458940	11.568337	4.238404	0.121202	-0.261271	0.225159	73.926690	-8.010069	-29.531600			
28921		1.752160	11.245716	4.002991	0.112205	-0.355756	0.294777	74.006287	-8.228675	-29.678133			
28922		2.127182	10.898957	3.641461	0.185943	-0.375472	0.339815	74.126551	-8.479709	-29.826912			
28923		2.344328	10.758564	3.374731	0.291337	-0.313209	0.344429	74.305448	-8.718432	-29.943036			
28924		2.253931	10.836972	3.301936	0.374185	-0.236925	0.328374	74.523393	-8.941030	-30.017863			
28925		2.097961	11.020030	3.362933	0.396925	-0.194601	0.310909	74.754355	-9.142382	-30.074705			
28926		2.144024	10.828508	3.309023	0.404770	-0.195062	0.321481	74.987028	-9.354358	-30.128932			
28927		2.169988	10.964423	3.346436	0.402265	-0.198666	0.346072	75.221257	-9.575322	-30.184531			
28928		2.289043	10.979186	3.298792	0.346832	-0.210202	0.379265	75.421389	-9.821114	-30.240446			
28929		2.341517	10.774183	3.182844	0.285302	-0.219838	0.424776	75.589434	-10.088390	-30.298163			
28930		2.432260	10.462707	2.983632	0.288144	-0.206379	0.472926	75.781128	-10.386002	-30.073005			
28931		2.324350	10.416635	2.979646	0.328531	-0.179578	0.522850	75.968271	-10.701924	-30.095759			
28932		2.154756	10.320684	3.029911	0.354318	-0.189870	0.556593	76.191860	-11.043656	-29.884327			
28933		2.101501	10.248724	2.924779	0.392870	-0.214575	0.566433	76.419404	-11.388546	-29.923285			
28934		2.035562	10.046474	2.757500	0.461468	-0.233833	0.563151	76.709665	-11.739760	-29.746821			
28935		2.082021	10.289589	2.870147	0.510699	-0.257973	0.575784	77.010865	-12.095269	-29.812690			
28936		2.262705	10.368851	2.749645	0.483327	-0.272433	0.612328	77.316146	-12.478261	-29.681795			
28937		2.285280	10.321617	2.580266	0.442193	-0.280369	0.662613	77.580288	-12.884558	-29.753262			
28938		2.397607	10.132871	2.431077	0.410666	-0.263262	0.711041	77.841471	-13.321120	-29.615481			
28939		2.485056	9.997264	2.353648	0.388129	-0.209773	0.745980	78.064756	-13.765175	-29.639852			
28940		2.372340	9.921698	2.306943	0.346826	-0.158812	0.753995	78.274475	-14.213121	-29.452952			
28941		2.385472	9.699133	2.208266	0.299482	-0.116620	0.747500	78.434739	-14.647188	-29.426394			
28942		2.420511	9.567901	2.223526	0.268443	-0.096291	0.746775	78.570486	-15.083358	-29.385997			
28943		2.472556	9.282944	2.042141	0.252171	-0.099261	0.755061	78.700903	-15.519838	-29.350546			
28944		2.324618	9.177280	1.968451	0.282744	-0.084786	0.755981	78.842667	-15.959970	-29.304275			
28945		2.283286	9.212694	2.112449	0.292540	-0.109563	0.751436	78.998071	-16.395717	-29.277377			
28946		2.327562	9.140955	2.019624	0.299302	-0.140512	0.747521	79.158914	-16.837203	-29.267000			
28947		2.394601	9.145534	1.936369	0.308667	-0.151812	0.740430	79.331540	-17.271416	-29.268671			
28948		2.489086	9.186122	1.918972	0.303434	-0.146369	0.715617	79.497495	-17.695416	-29.267907			
28949		2.685635	9.166547	1.978960	0.304559	-0.124812	0.699950	79.665054	-18.104009	-29.260681			
28950		2.752417	9.105357	1.956317	0.303326	-0.109444	0.701735	79.825315	-18.516248	-29.242017			
28951		2.891179	9.066544	1.925213	0.297594	-0.077181	0.703738	79.980314	-18.922231	-29.208408			
28952		3.020407	8.912848	1.816641	0.302460	-0.044005	0.699095	80.127823	-19.326459	-29.153145			
28953		3.059498	8.854251	1.823173	0.310288	-0.006873	0.687809	80.276822	-19.716759	-29.081155			
28954		3.094979	8.748227	1.839559	0.308458	0.011153	0.667863	80.417491	-20.098210	-28.997825			
28955		3.214463	8.549115	1.766907	0.324620	0.008620	0.644500	80.572698	-20.462918	-28.922652			
28956		3.221256	8.517514	1.769856	0.362340	-0.001521	0.627145	80.747962	-20.822867	-28.852790			
28957		3.395523	8.683746	1.917778	0.365987	-0.023378	0.609211	80.934889	-21.170955	-28.802459			
28958		3.560341	8.576556	1.819460	0.346711	-0.044306	0.595211	81.111674	-21.516996	-28.763691			
28959		3.652038	8.477229	1.751581	0.346396	-0.041335	0.579642	81.292669	-21.850209	-28.729214			
28960		3.732605	8.517805	1.756652	0.337675	-0.058311	0.561824	81.468955	-22.178744	-28.704147			
28961		3.682620	8.548149	1.676272	0.312653	-0.064760	0.551310	81.637462	-22.498067	-28.688649			
28962		3.743447	8.487381	1.556217	0.283509	-0.080323	0.525037	81.789616	-22.807680	-28.682260			
28963		3.830259	8.415712	1.511984	0.285135	-0.079913	0.486569	81.948780	-23.091588	-28.683637			
28964		3.999537	8.485398	1.454378	0.293670	-0.066902	0.454125	82.106535	-23.359917	-28.676850			
28965		4.158496	8.648572	1.477701	0.279932	-0.055444	0.441248	82.258902	-23.616187	-28.668633			
28966		4.136014	8.686332	1.547960	0.246041	-0.050368	0.431489	82.386520	-23.870454	-28.654907			
28967		4.273965	8.537721	1.420656	0.200712	-0.030426	0.425212	82.488135	-24.115765	-28.633675			
28968		4.227874	8.491146	1.343688	0.183612	0.001722	0.416288	82.567415	-24.357593	-28.589620			
28969		4.216968	8.523383	1.299323	0.141564	0.019314	0.416265	82.622684	-24.594205	-28.538724			
28970		4.212711	8.441861	1.208413	0.098999	0.033129	0.408988	82.645319	-24.829683	-28.475909			
28971		4.270633	8.422492	1.202141	0.049270	0.053904	0.404319	82.638602	-25.057011	-28.404324			
28972		4.154444	8.253095	1.126779	0.005378	0.069675	0.398407	82.597642	-25.283797	-28.319115			
28973		4.172690	8.173560	1.070909	-0.026875	0.082037	0.381569	82.539752	-25.496037	-28.231120			
28974		4.369116	8.004301	0.944039	-0.066293	0.094642	0.375805	82.450848	-25.707966	-28.131239			
28975		4.437145	7.891061	0.997398	-0.083417	0.134692	0.379798	82.345134	-25.914976	-28.009163			
28976		4.490085	7.714429	0.993682	-0.099636	0.173169	0.370084	82.214470	-26.117361	-27.858962			
28977		4.448094	7.439184	0.946799	-0.065271	0.213200	0.350290	82.096975	-26.301022	-27.688403			
28978		4.404495	7.308064	0.966009	0.010068	0.242663	0.331501	82.009702	-26.475596	-27.496244			
28979		4.384496	7.317433	1.048263	0.076566	0.256960	0.310229	81.961243	-26.632582	-27.300387			
28980		4.436419	7.472268	1.137869	0.125894	0.258807	0.304991	81.935465	-26.790615	-27.099461			
28981		4.443159	7.608941	1.334255	0.120385	0.241641	0.313365	81.915088	-26.950433	-26.912334			
28982		4.441379	7.587051	1.390817	0.087741	0.210305	0.327465	81.879197	-27.125048	-26.739493			
28983		4.464015	7.560587	1.447384	0.046381	0.177348	0.320473	81.833524	-27.293920	-26.591939			
28984		4.476077	7.481850	1.493227	-0.001908	0.141976	0.300098	81.766132	-27.458406	-26.464340			
28985		4.542908	7.428810	1.580224	-0.047796	0.098858	0.280469	81.690276	-27.610777	-26.369835			
28986		4.615942	7.303474	1.583547	-0.091852	0.060215	0.260235	81.596318	-27.759256	-26.297392			
28987		4.676270	7.139609	1.521778	-0.103634	0.044977	0.225388	81.506244	-27.884693	-26.241877			
28988		4.608317	7.076690	1.574173	-0.081470	0.034831	0.179482	81.428821	-27.989524	-26.192726			
28989		4.607965	7.116740	1.671100	-0.065888	0.002267	0.134745	81.376985	-28.067145	-26.172944			
28990		4.663946	7.114764	1.619170	-0.048020	-0.023733	0.095347	81.339944	-28.129421	-26.169227			
28991		4.741943	7.110095	1.563472	-0.022396	-0.037932	0.071316	81.328040	-28.174569	-26.181352			
28992		4.686837	7.204205	1.496590	0.004933	-0.049417	0.045370	81.331345	-28.210911	-26.198922			
28993		4.732749	7.297116	1.494192	0.010870	-0.060109	0.023200	81.347486	-28.230724	-26.230028			
28994		4.727659	7.281393	1.419391	0.008599	-0.058020	-0.001622	81.357656	-28.241318	-26.257697			
28995		4.763618	7.348024	1.398665	0.006967	-0.048372	-0.027304	81.370335	-28.231507	-26.286203			
28996		4.704141	7.425825	1.460853	-0.011488	-0.050534	-0.061843	81.369471	-28.207471	-26.314909			
28997		4.738977	7.518660	1.437300	-0.048159	-0.062861	-0.105359	81.358526	-28.154696	-26.360332			
28998		4.803546	7.541947	1.353112	-0.088755	-0.068409	-0.146372	81.322623	-28.084450	-26.408756			
28999		4.859733	7.524949	1.305528	-0.106721	-0.068267	-0.173438	81.282795	-27.993635	-26.464335			
29000		4.855275	7.479461	1.194614	-0.082242	-0.061821	-0.193572	81.250722	-27.896282	-26.513223			
29001		4.795812	7.534180	1.140633	-0.022399	-0.038365	-0.213854	81.251944	-27.780024	-26.553625			
29002		4.896776	7.782437	1.151225	0.048570	-0.030729	-0.229762	81.287063	-27.659612	-26.586108			
29003		4.859640	8.091350	1.208806	0.085488	-0.007535	-0.242959	81.342025	-27.524168	-26.609415			
29004		4.779857	8.324542	1.235359	0.087398	0.004325	-0.259720	81.390199	-27.383824	-26.622155			
29005		4.669504	8.538782	1.269436	0.070082	0.009519	-0.281169	81.432781	-27.225245	-26.637951			
29006		4.727805	8.611510	1.243872	0.057510	0.010896	-0.291592	81.463185	-27.066280	-26.649356			
29007		4.707199	8.668079	1.203747	0.085990	0.020732	-0.293735	81.511979	-26.899617	-26.658938			
29008		4.766926	8.883982	1.244850	0.113072	0.041043	-0.272334	81.564619	-26.749007	-26.649133			
29009		4.656930	9.108054	1.324274	0.106497	0.050353	-0.262313	81.615196	-26.597664	-26.636621			
29010		4.627527	9.216586	1.398123	0.074846	0.052651	-0.249046	81.641665	-26.459267	-26.617114			
29011		4.585172	9.242501	1.444476	0.032902	0.055558	-0.223167	81.646987	-26.329697	-26.597541			
29012		4.516667	9.228276	1.530997	-0.014275	0.049693	-0.196131	81.621151	-26.221477	-26.575070			
29013		4.435594	9.143873	1.536873	-0.044851	0.043207	-0.177344	81.583608	-26.118907	-26.559170			
29014		4.435686	9.081837	1.582453	-0.058713	0.040173	-0.171877	81.534098	-26.025130	-26.540681			
29015		4.451053	8.945178	1.644339	-0.070777	0.042736	-0.170188	81.481676	-25.926637	-26.524620			
29016		4.437902	8.943828	1.729606	-0.073457	0.050186	-0.173998	81.421172	-25.830722	-26.500284			
29017		4.369915	8.901940	1.829549	-0.093626	0.049577	-0.177838	81.354261	-25.727285	-26.480905			
29018		4.232593	8.893034	1.929414	-0.124852	0.020662	-0.179688	81.272712	-25.630610	-26.475977			
29019		4.123917	8.889640	2.078133	-0.184074	-0.013954	-0.179970	81.171504	-25.531476	-26.497054			
29020		4.140638	8.775601	2.042395	-0.231145	-0.066380	-0.152568	81.051454	-25.457771	-26.544435			
29021		4.062168	8.489196	1.975906	-0.231807	-0.113195	-0.130497	80.947604	-25.395610	-26.623187			
29022		4.101848	8.331159	1.867384	-0.189160	-0.169582	-0.085889	80.876350	-25.369076	-26.728750			
29023		4.022295	8.152204	1.816618	-0.111980	-0.197723	-0.073324	80.861315	-25.347111	-26.854777			
29024		4.032246	8.248146	1.793117	-0.034809	-0.231116	-0.052602	80.893416	-25.345049	-26.995487			
29025		3.990989	8.322035	1.747874	0.019497	-0.239532	-0.027600	80.962924	-25.352619	-27.143084			
29026		3.966813	8.353731	1.630554	0.068460	-0.241892	0.007677	81.054534	-25.385313	-27.284576			
29027		3.898330	8.377431	1.565737	0.120965	-0.212198	0.042410	81.172062	-25.429671	-27.408282			
29028		3.868706	8.459644	1.558049	0.158270	-0.158023	0.081226	81.289760	-25.496122	-27.490309			
29029		3.857402	8.522824	1.477620	0.167612	-0.089736	0.091919	81.399217	-25.557518	-27.532735			
29030		3.767665	8.529242	1.444857	0.155629	-0.019856	0.104823	81.477257	-25.625171	-27.526102			
29031		3.634547	8.570397	1.438961	0.105645	0.040441	0.106498	81.515366	-25.683702	-27.485550			
29032		3.405245	8.481851	1.376824	0.038730	0.070477	0.116816	81.501303	-25.750349	-27.421104			
29033		3.266590	8.332105	1.325485	-0.035163	0.095122	0.115684	81.443280	-25.809429	-27.345208			
29034		3.167882	8.141308	1.234396	-0.085984	0.119743	0.113566	81.344173	-25.869659	-27.249937			
29035		3.429534	8.114735	1.404400	-0.147277	0.195818	0.110840	81.194164	-25.917001	-27.110815			
29036		3.531593	8.062927	1.503859	-0.225200	0.306911	0.094222	80.964287	-25.948967	-26.899311			
29037		3.385018	7.860248	1.592309	-0.292039	0.421665	0.075302	80.670404	-25.954575	-26.621254			
29038		3.073469	7.733477	1.709368	-0.339769	0.502017	0.048646	80.323062	-25.940231	-26.291629			
29039		2.927194	7.441436	1.747100	-0.369185	0.538442	0.010619	79.956185	-25.894914	-25.947364			
29040		2.786582	7.235503	1.714687	-0.356764	0.530891	-0.024244	79.595328	-25.832572	-25.608434			
29041		2.550730	7.020748	1.810126	-0.312153	0.490709	-0.041401	79.277851	-25.759178	-25.301097			
29042		2.301832	6.934429	1.772902	-0.244482	0.394051	-0.085903	79.022807	-25.673318	-25.056302			
29043		2.565006	6.957370	1.847713	-0.172623	0.267986	-0.130758	78.851392	-25.571759	-24.899927			
29044		3.063404	7.124984	1.776429	-0.135591	0.150080	-0.180212	78.730301	-25.458409	-24.819816			
29045		3.113695	7.766033	1.890295	-0.166072	0.041856	-0.192204	78.627131	-25.347133	-24.812526			
29046		2.908388	7.961590	2.005090	-0.240583	-0.079707	-0.148246	78.505673	-25.277402	-24.871854			
29047		2.825066	7.910771	2.110771	-0.305596	-0.208724	-0.077804	78.382988	-25.259082	-25.006100			
29048		3.060830	8.045021	1.966647	-0.370996	-0.274847	-0.007098	78.230805	-25.291220	-25.168806			
29049		3.151077	7.974900	1.847434	-0.447197	-0.277083	0.016657	78.040012	-25.334577	-25.333299			
29050		3.424295	7.807778	1.737568	-0.514708	-0.237808	-0.021701	77.796607	-25.354927	-25.474936			
29051		3.718343	7.501576	1.553580	-0.559338	-0.156096	-0.104053	77.516394	-25.317147	-25.580488			
29052		3.792373	7.083326	1.404163	-0.552746	-0.042682	-0.230163	77.211797	-25.197719	-25.630172			
29053		3.654787	6.786862	1.346715	-0.465164	0.071663	-0.363037	76.941200	-24.987096	-25.632128			
29054		3.393442	6.724046	1.380014	-0.336454	0.161992	-0.502597	76.724365	-24.689484	-25.596323			
29055		3.177765	6.912653	1.439790	-0.195387	0.243314	-0.616972	76.580717	-24.314614	-25.531731			
29056		2.889196	7.132603	1.639437	-0.062307	0.262540	-0.672499	76.507286	-23.908758	-25.461346			
29057		2.893195	7.472765	1.672025	0.014258	0.253182	-0.724205	76.489075	-23.472673	-25.407926			
29058		2.970945	7.696268	1.616228	0.021474	0.276358	-0.797978	76.468981	-22.994854	-25.348592			
29059		3.093432	8.029019	1.470669	-0.013122	0.329445	-0.885262	76.427476	-22.458781	-25.273356			
29060		3.015701	8.348354	1.615101	-0.078663	0.407369	-0.961544	76.330929	-21.871985	-25.160637			
29061		2.874934	8.334375	1.671258	-0.167298	0.474873	-1.019884	76.178716	-21.240962	-25.020650			
29062		2.677828	8.310752	1.662693	-0.214550	0.540187	-1.065095	75.985470	-20.577588	-24.848593			
29063		2.545549	8.174243	1.595870	-0.211689	0.581560	-1.083252	75.794145	-19.895637	-24.660369			
29064		2.747529	8.419838	1.688444	-0.162755	0.640236	-1.104567	75.618852	-19.194981	-24.441650			
29065		3.238208	8.910303	1.773583	-0.151381	0.763787	-1.128532	75.436178	-18.460715	-24.159660			
29066		3.859421	9.451301	2.166262	-0.205724	0.946663	-1.122793	75.189265	-17.703967	-23.772235			
29067		4.313720	9.820021	2.516197	-0.361886	1.163735	-1.087808	74.824942	-16.930563	-23.261475			
29068		4.340572	9.961951	2.877518	-0.579184	1.374678	-1.016954	74.302864	-16.162405	-22.624274			
29069		4.172943	9.851998	3.148189	-0.831366	1.539322	-0.932550	73.622332	-15.406283	-21.891833			
29070		3.880074	9.354878	3.231751	-1.059189	1.648314	-0.868588	72.800593	-14.660259	-21.097516			
29071		3.522283	8.821671	3.340300	-1.223778	1.695835	-0.866386	71.895919	-13.893516	-20.292465			
29072		3.139953	8.517789	3.365523	-1.312096	1.709293	-0.958454	70.952952	-13.064219	-19.510772			
29073		2.682181	8.271089	3.536985	-1.326900	1.704291	-1.179919	70.031573	-12.101668	-18.794035			
29074		2.317108	8.032638	3.775650	-1.290936	1.677956	-1.491391	69.158266	-10.968743	-18.171571			
29075		2.149379	7.727647	3.880112	-1.192598	1.630278	-1.812080	68.379040	-9.663334	-17.663803			
29076		1.919309	7.157334	3.988099	-1.025451	1.543832	-2.089898	67.722328	-8.225147	-17.279630			
29077		1.719351	6.520476	3.994302	-0.761642	1.417905	-2.307967	67.248358	-6.693010	-17.028502			
29078		1.776077	6.298565	4.011710	-0.470221	1.313465	-2.506176	66.954642	-5.080529	-16.886708			
29079		1.739692	6.507923	4.143143	-0.243816	1.222650	-2.681110	66.806574	-3.393154	-16.840591			
29080		1.345253	7.065605	4.342483	-0.132940	1.122476	-2.809666	66.721990	-1.663534	-16.878397			
29081		0.785816	8.182403	4.512257	-0.133412	1.017499	-2.939118	66.642296	0.113214	-17.004713			
29082		-0.142125	10.134129	4.858021	-0.256901	0.898536	-3.069165	66.480802	1.927840	-17.225744			
29083		-0.667577	11.623653	5.463542	-0.529740	0.719490	-3.089541	66.156105	3.714096	-17.554697			
29084		-0.374871	12.267043	5.699226	-0.851942	0.565604	-2.994275	65.625667	5.408874	-17.955156			
29085		-0.216954	12.539969	5.849705	-1.045339	0.459710	-2.735257	64.977294	6.942397	-18.368167			
29086		-0.322624	12.609505	6.105240	-1.075329	0.345158	-2.321079	64.299456	8.225075	-18.756879			
29087		-0.254667	12.807814	6.253031	-0.998573	0.282450	-1.853171	63.673866	9.250025	-19.075898			
29088		-0.518721	12.886108	6.380116	-0.889484	0.271757	-1.455429	63.114994	10.061244	-19.307798			
29089		-0.876852	13.096247	6.398773	-0.785721	0.270614	-1.158391	62.630542	10.722485	-19.470170			
29090		-1.404847	13.403131	6.624455	-0.721751	0.252829	-0.967271	62.182950	11.276252	-19.595043			
29091		-1.907066	13.602067	6.860255	-0.683813	0.217540	-0.885800	61.760976	11.782741	-19.721123			
29092		-2.101112	13.507887	7.002548	-0.652651	0.157131	-0.880610	61.343852	12.264501	-19.879953			
29093		-2.022958	13.089720	6.898654	-0.575276	0.091328	-0.846662	60.968670	12.714646	-20.067652			
29094		-2.171023	12.317932	6.845820	-0.330057	-0.058593	-0.777417	60.714545	13.082283	-20.314275			
29095		-1.892380	12.522821	6.922768	0.075274	-0.234841	-0.588647	60.687633	13.310579	-20.599259			
29096		-1.848932	13.914317	7.921488	0.196391	-0.450340	-0.308628	60.717955	13.333232	-20.913180			
29097		-1.655288	13.601787	7.854135	0.030164	-0.624599	-0.075268	60.652880	13.195631	-21.250400			
29098		-1.293775	12.509436	7.530048	-0.169635	-0.734693	0.060357	60.466172	12.952808	-21.602764			
29099		-0.783443	11.604286	6.856971	-0.343787	-0.760632	0.135018	60.187931	12.669882	-21.946756			
29100		-0.555960	10.462378	6.335944	-0.463657	-0.699730	0.164195	59.847286	12.381725	-22.247478			
29101		-0.605112	9.409341	5.790828	-0.471074	-0.612089	0.160094	59.517768	12.125597	-22.504843			
29102		-0.638498	8.785769	5.295465	-0.388169	-0.507196	0.137855	59.242467	11.902856	-22.712255			
29103		-0.763049	8.406601	5.121324	-0.279791	-0.381385	0.077980	59.043716	11.752548	-22.875455			
29104		-0.928907	8.286821	5.005713	-0.187769	-0.264787	0.026683	58.902671	11.654203	-22.992819			
29105		-1.131926	8.370507	4.942642	-0.140153	-0.157430	0.005605	58.802846	11.604941	-23.064898			
29106		-1.391060	8.471754	5.021494	-0.121278	-0.091174	0.023860	58.717583	11.558936	-23.095751			
29107		-1.597156	8.593352	5.167415	-0.157991	-0.035097	0.050220	58.622621	11.524051	-23.092972			
29108		-1.633512	8.564605	5.171018	-0.225434	0.013468	0.083239	58.491855	11.480109	-23.053277			
29109		-1.680774	8.554396	5.182155	-0.305997	0.067431	0.110247	58.325920	11.446707	-22.980895			
29110		-1.774884	8.430928	5.243151	-0.391241	0.112227	0.140641	58.113421	11.404804	-22.874183			
29111		-1.933583	8.273999	5.289319	-0.473991	0.152228	0.159808	57.862514	11.373593	-22.744190			
29112		-2.011684	8.115947	5.433521	-0.528672	0.159177	0.178245	57.578070	11.328780	-22.602257			
29113		-2.110785	8.030121	5.541249	-0.578440	0.134776	0.188267	57.267252	11.279696	-22.471632			
29114		-2.146256	7.928129	5.560706	-0.621629	0.112963	0.167567	56.924231	11.227237	-22.355434			
29115		-2.182082	7.718530	5.556254	-0.615185	0.061355	0.144405	56.582537	11.177599	-22.274188			
29116		-2.154256	7.637159	5.439477	-0.577164	0.011752	0.106599	56.251477	11.123632	-22.226497			
29117		-2.222045	7.497050	5.436720	-0.512013	-0.039959	0.070650	55.954779	11.077597	-22.217827			
29118		-2.367582	7.355133	5.588607	-0.395299	-0.132764	0.036126	55.710084	11.011149	-22.262647			
29119		-2.374193	7.414570	5.401360	-0.272392	-0.228898	-0.015442	55.528001	10.944759	-22.372963			
29120		-2.496248	7.565126	5.360424	-0.184339	-0.331695	-0.091627	55.378234	10.873857	-22.555350			
29121		-2.540366	7.657857	5.242304	-0.128139	-0.437024	-0.163153	55.251133	10.808618	-22.814127			
29122		-2.429010	7.789221	5.192437	-0.097189	-0.537816	-0.207804	55.126242	10.724329	-23.133601			
29123		-2.215570	7.942675	5.143766	-0.111271	-0.608461	-0.225339	54.990582	10.630896	-23.494642			
29124		-2.082852	8.042987	5.169590	-0.159759	-0.666905	-0.204906	54.820131	10.501317	-23.874132			
29125		-1.790627	8.034899	5.302229	-0.201242	-0.717906	-0.151193	54.629781	10.334918	-24.261413			
29126		-1.703106	8.175033	5.561847	-0.194808	-0.750780	-0.080325	54.442327	10.116956	-24.637321			
29127		-1.535917	8.415236	5.911318	-0.201046	-0.791734	-0.005638	54.257751	9.855640	-25.008509			
29128		-1.086579	8.674514	6.260150	-0.236920	-0.840982	0.097844	54.053232	9.522164	-25.364131			
29129		-0.759816	9.034691	6.846930	-0.336025	-0.829571	0.198253	53.804328	9.150973	-25.680695			
29130		-0.618184	9.118560	7.183782	-0.443332	-0.802241	0.241514	53.497255	8.761040	-25.964956			
29131		-0.312043	8.959428	7.302376	-0.458993	-0.765931	0.282837	53.191539	8.369565	-26.218160			
29132		0.050267	8.899350	7.452333	-0.448907	-0.689568	0.298675	52.896051	7.988981	-26.425488			
29133		0.151439	8.651081	7.406550	-0.425270	-0.577516	0.278033	52.625088	7.662489	-26.589111			
29134		0.154587	8.327945	7.167750	-0.371141	-0.461933	0.229542	52.387484	7.390381	-26.712248			
29135		0.128347	8.025697	6.950964	-0.314400	-0.334719	0.180013	52.191614	7.192081	-26.796636			
29136		0.099018	7.760139	6.738314	-0.242624	-0.216518	0.126213	52.038037	7.051851	-26.842417			
29137		-0.148903	7.592050	6.548400	-0.182167	-0.098059	0.076392	51.927115	6.983385	-26.854890			
29138		-0.381724	7.447256	6.439271	-0.120198	-0.011358	0.030454	51.850986	6.958429	-26.840910			
29139		-0.588960	7.390679	6.380685	-0.069670	0.053970	-0.014587	51.808985	6.984736	-26.816658			
29140		-0.822593	7.425484	6.367901	-0.020154	0.095130	-0.045622	51.792700	7.031671	-26.781439			
29141		-0.978899	7.526941	6.354382	0.028562	0.114973	-0.071727	51.807916	7.105325	-26.749916			
29142		-1.079518	7.731206	6.374309	0.074098	0.125860	-0.094594	51.845214	7.185184	-26.718193			
29143		-1.069566	7.894210	6.442565	0.108012	0.132041	-0.100209	51.905750	7.277664	-26.688959			
29144		-1.040932	8.015680	6.497934	0.123498	0.141846	-0.102265	51.972022	7.366600	-26.652523			
29145		-0.927187	8.167370	6.596488	0.144440	0.152692	-0.080023	52.055690	7.457170	-26.606466			
29146		-0.795736	8.270986	6.705968	0.165709	0.173662	-0.050095	52.150584	7.533607	-26.536688			
29147		-0.711170	8.349327	6.721918	0.198992	0.193573	-0.028688	52.270537	7.615120	-26.453443			
29148		-0.401185	8.393953	6.753410	0.238260	0.243300	-0.020203	52.412872	7.702012	-26.340786			
29149		-0.241356	8.308806	6.826203	0.296416	0.318328	-0.017803	52.597223	7.821653	-26.196011			
29150		-0.198847	8.225726	6.801675	0.379847	0.409094	-0.034819	52.830959	7.971845	-26.011356			
29151		-0.084946	8.353778	6.762154	0.500734	0.520501	-0.077431	53.143538	8.187280	-25.792805			
29152		-0.225522	8.540475	6.842571	0.657230	0.608207	-0.096118	53.547987	8.431516	-25.534756			
29153		-0.539816	8.928457	6.932011	0.804869	0.632075	-0.082512	54.044626	8.683973	-25.262455			
29154		-1.097152	9.798557	7.369309	0.863813	0.587619	-0.047924	54.571153	8.894422	-24.993090			
29155		-1.447471	10.300226	7.521647	0.799985	0.486162	-0.019431	55.060218	9.064329	-24.764064			
29156		-1.484280	10.218190	7.778831	0.803079	0.363608	0.031876	55.541242	9.159475	-24.571114			
29157		-1.404160	10.139086	7.870445	0.935270	0.190154	0.084627	56.091822	9.180786	-24.447178			
29158		-1.183517	10.504305	7.652180	1.266154	-0.066751	0.228434	56.815362	9.041971	-24.397241			
29159		-0.870897	11.184727	7.621881	1.505600	-0.238414	0.359244	57.673197	8.795039	-24.395746			
29160		-0.914038	11.687394	7.888043	1.518320	-0.359790	0.431386	58.527911	8.467329	-24.431527			
29161		-0.875357	11.766753	7.881122	1.403423	-0.483565	0.497682	59.314596	8.080009	-24.517523			
29162		-0.608791	11.864429	7.751781	1.259252	-0.594017	0.565018	60.009559	7.619375	-24.639636			
29163		-0.208533	11.680697	7.613418	1.133686	-0.674638	0.656013	60.635374	7.101221	-24.785583			
29164		-0.015720	11.140679	7.281179	1.121658	-0.730063	0.754457	61.250727	6.510443	-24.932822			
29165		-0.145343	10.797274	7.106532	1.274272	-0.779043	0.833880	61.958375	5.877552	-25.094222			
29166		-0.315220	10.813902	7.006380	1.479121	-0.868781	0.904982	62.777500	5.177125	-25.285877			
29167		-0.057488	11.019549	6.686122	1.637521	-0.945632	0.976569	63.691629	4.433069	-25.513473			
29168		-0.012083	11.370512	6.403902	1.721730	-0.991054	1.044771	64.651259	3.636334	-25.754478			
29169		0.129609	11.202848	6.113468	1.722083	-1.015618	1.104876	65.618428	2.816638	-26.011697			
29170		0.537035	10.836641	5.677963	1.687342	-1.018219	1.177531	66.565004	1.952543	-26.261753			
29171		0.759545	10.748962	5.197281	1.624458	-0.990991	1.261744	67.484510	1.064511	-26.497465			
29172		0.840387	10.833337	5.061069	1.503168	-0.975595	1.370288	68.333927	0.115559	-26.709859			
29173		1.090453	10.671753	4.857288	1.288760	-0.984158	1.496828	69.068706	-0.889284	-26.918802			
29174		1.376992	10.493553	4.559610	1.033638	-1.004238	1.634720	69.656430	-1.980182	-27.116689			
29175		1.672347	9.992899	4.372503	0.797324	-1.037955	1.754892	70.117492	-3.129943	-27.324679			
29176		1.866348	9.529059	4.304055	0.590730	-1.053797	1.842775	70.459878	-4.339447	-27.526600			
29177		1.997305	8.962025	4.211489	0.421079	-1.098094	1.885375	70.715980	-5.568557	-27.756944			
29178		2.178443	8.296765	4.018252	0.313932	-1.135441	1.863210	70.914190	-6.802777	-28.010979			
29179		2.351970	7.750211	3.727103	0.300242	-1.175988	1.783588	71.120086	-7.989515	-28.313350			
29180		2.444202	7.346703	3.500585	0.366899	-1.204048	1.657419	71.372127	-9.123003	-28.653771			
29181		2.522526	7.143807	3.183700	0.470759	-1.236543	1.504771	71.703776	-10.166438	-29.053549			
29182		2.614557	7.054262	2.924873	0.574959	-1.270088	1.353386	72.107319	-11.142345	-29.500626			
29183		2.723184	7.098691	2.697473	0.625016	-1.308304	1.215573	72.562505	-12.034801	-30.009051			
29184		2.948692	7.338710	2.540923	0.575945	-1.318285	1.090937	73.000218	-12.868596	-30.546448			
29185		3.320488	7.552002	2.153045	0.406963	-1.278680	0.979266	73.354024	-13.619135	-31.095104			
29186		3.645931	7.463297	1.878835	0.090544	-1.143033	0.861621	73.516329	-14.292566	-31.584664			
29187		4.352083	7.299949	1.816565	-0.352979	-0.917461	0.754097	73.406809	-14.857865	-31.973279			
29188		5.080946	6.602941	1.305183	-0.859823	-0.603054	0.683377	72.962501	-15.346603	-32.185886			
29189		5.320486	5.346056	0.866540	-1.246857	-0.206047	0.570147	72.245848	-15.695035	-32.196422			
29190		4.784415	4.096392	0.745609	-1.339079	0.129505	0.412086	71.427755	-15.910908	-32.033276			
29191		4.272426	2.992155	0.643757	-1.144358	0.402378	0.187558	70.693446	-15.939018	-31.765166			
29192		3.589248	2.486525	0.836378	-0.711052	0.615213	-0.115688	70.188072	-15.773837	-31.428877			
29193		2.565106	3.414560	1.377231	-0.213158	0.717157	-0.455917	69.976583	-15.389483	-31.115114			
29194		1.476096	4.712393	2.084545	0.196577	0.642780	-0.725095	70.024119	-14.888771	-30.889388			
29195		0.852640	6.077124	2.412598	0.424919	0.451013	-0.936651	70.245432	-14.297476	-30.821629			
29196		0.853987	7.242124	2.658886	0.515190	0.244070	-1.074734	70.549405	-13.685912	-30.884601			
29197		1.217036	7.982727	2.526883	0.545434	0.101201	-1.101802	70.892235	-13.072191	-31.037562			
29198		1.199144	8.283322	2.290604	0.604653	0.048000	-1.024382	71.266365	-12.523210	-31.192228			
29199		1.041790	8.918557	2.335530	0.637295	0.051723	-0.879397	71.654127	-12.037463	-31.322444			
29200		0.606849	9.831761	2.457794	0.518181	0.049512	-0.678070	71.961521	-11.674414	-31.405287			
29201		0.256458	10.681166	2.759904	0.231838	-0.010247	-0.441106	72.105363	-11.437261	-31.485598			
29202		0.063825	10.689896	2.917816	-0.179326	-0.106544	-0.215407	72.012928	-11.353005	-31.570439			
29203		-0.143094	10.146100	2.862690	-0.591982	-0.212877	-0.042925	71.692515	-11.369067	-31.691507			
29204		-0.046490	8.876625	2.308256	-0.810181	-0.284051	0.082503	71.247538	-11.479248	-31.820846			
29205		0.149571	7.986164	2.060349	-0.798083	-0.270611	0.099721	70.810319	-11.585072	-31.946547			
29206		-0.059763	7.362061	1.942096	-0.636649	-0.218067	0.007769	70.460721	-11.643738	-32.052904			
29207		-0.244495	7.048836	1.909672	-0.366186	-0.177838	-0.188992	70.272016	-11.577327	-32.183014			
29208		-0.190503	7.059935	2.163239	-0.072671	-0.141589	-0.417634	70.253757	-11.391982	-32.331234			
29209		-0.155106	8.166722	2.486133	0.090992	-0.106178	-0.635217	70.335577	-11.071203	-32.509734			
29210		-0.269935	9.376209	2.765308	-0.004223	-0.101074	-0.776239	70.364020	-10.683785	-32.705804			
29211		-0.119357	9.534125	2.600753	-0.239254	-0.060737	-0.858280	70.257580	-10.233861	-32.902610			
29212		0.010465	9.214796	2.397850	-0.380216	0.027162	-0.841535	70.057958	-9.786385	-33.042596			
29213		-0.126423	9.069504	2.540423	-0.361407	0.121676	-0.773280	69.859525	-9.347605	-33.125164			
29214		-0.670566	8.809724	2.547750	-0.224523	0.128939	-0.667087	69.733201	-8.974202	-33.177615			
29215		-0.910123	9.163434	2.787372	-0.032214	0.066833	-0.612097	69.722153	-8.633281	-33.259242			
29216		-0.807953	9.745233	2.900422	0.080970	-0.034215	-0.569553	69.780553	-8.344049	-33.381446			
29217		-0.751771	10.270832	3.135598	0.114630	-0.137521	-0.499813	69.865400	-8.103774	-33.550998			
29218		-0.745854	10.532174	3.215321	0.023459	-0.255240	-0.443411	69.903084	-7.925008	-33.767774			
29219		-0.550267	10.533863	3.269694	-0.074925	-0.335870	-0.417610	69.890628	-7.767816	-34.028243			
29220		-0.353371	10.483050	3.212245	-0.174279	-0.360279	-0.430633	69.821223	-7.616141	-34.299821			
29221		-0.322294	10.390544	3.402806	-0.248307	-0.374295	-0.463542	69.711953	-7.442464	-34.590472			
29222		-0.155880	9.777719	3.201126	-0.244145	-0.390960	-0.480883	69.604535	-7.270338	-34.889438			
29223		0.436314	9.180236	2.935571	-0.047436	-0.298265	-0.473342	69.603706	-7.077041	-35.141169			
29224		0.534755	9.093455	2.987121	0.212838	-0.176685	-0.446925	69.741328	-6.880099	-35.317249			
29225		0.482661	9.025715	2.861812	0.460597	-0.082397	-0.429230	70.014873	-6.666799	-35.442124			
29226		0.797800	9.368400	2.880394	0.630422	0.026422	-0.441187	70.377606	-6.431683	-35.504935			
29227		0.804011	9.609678	3.074882	0.672272	0.088875	-0.451172	70.761354	-6.172409	-35.538195			
29228		0.900974	9.677573	3.213240	0.671707	0.111991	-0.434967	71.141895	-5.923675	-35.549993			
29229		0.993192	10.872453	3.785913	0.538840	0.069500	-0.384461	71.448395	-5.703773	-35.578167			
29230		1.334844	11.540439	3.956433	0.204341	0.016774	-0.272791	71.563006	-5.560223	-35.609904			
29231		1.776986	11.630688	3.965092	-0.110839	0.020622	-0.093884	71.494505	-5.506999	-35.610853			
29232		1.838963	11.262404	4.077834	-0.305508	0.043963	0.056860	71.309701	-5.537595	-35.567461			
29233		1.763134	11.072392	4.231509	-0.304770	0.021590	0.165335	71.125390	-5.624817	-35.520125			
29234		1.808183	10.710671	4.274562	-0.182805	-0.011602	0.187659	71.011274	-5.736506	-35.482344			
29235		1.849704	10.941299	4.391643	0.002288	-0.017054	0.146869	71.005166	-5.820762	-35.459174			
29236		1.893520	11.564378	4.593276	0.128105	-0.020244	0.102010	71.071069	-5.887733	-35.442039			
29237		1.775021	12.040004	4.589177	0.175464	-0.050716	0.099602	71.166943	-5.952656	-35.446184			
29238		1.727100	12.458198	4.550204	0.191456	-0.102803	0.164430	71.272526	-6.068826	-35.462683			
29239		1.611124	12.800099	4.499696	0.157653	-0.165508	0.272783	71.361529	-6.248807	-35.497751			
29240		1.560517	12.840901	4.194144	0.105246	-0.221129	0.394545	71.420336	-6.511503	-35.536908			
29241		1.534249	12.657082	4.079313	0.054305	-0.253827	0.491021	71.451438	-6.826062	-35.580604			
29242		1.519372	12.216041	3.859333	0.059290	-0.271538	0.575693	71.483809	-7.196239	-35.614497			
29243		1.685840	11.819770	3.535366	0.134974	-0.255615	0.651630	71.558089	-7.598343	-35.630298			
29244		1.734891	11.800927	3.393373	0.217064	-0.199350	0.713725	71.672816	-8.030380	-35.600356			
29245		1.637216	11.696293	3.297650	0.223194	-0.131889	0.742247	71.785979	-8.459508	-35.533201			
29246		1.623472	11.462813	3.226378	0.193553	-0.073396	0.768859	71.875253	-8.899094	-35.425413			
29247		1.504672	11.155685	3.204617	0.150177	-0.051734	0.798845	71.937124	-9.344993	-35.305027			
29248		1.625842	10.772210	3.012805	0.089983	-0.030243	0.828514	71.959909	-9.809507	-35.163281			
29249		1.705440	10.275720	2.764190	0.079005	0.016575	0.850891	71.970899	-10.271773	-34.995866			
29250		1.666656	10.090893	2.859251	0.080351	0.044477	0.865118	71.977286	-10.742940	-34.805891			
29251		1.807072	9.764048	2.814726	0.079314	0.061181	0.872101	71.980248	-11.208901	-34.609491			
29252		1.833507	9.418619	2.860359	0.108264	0.088427	0.881253	71.994184	-11.681011	-34.391668			
29253		1.880079	9.331319	3.033600	0.119677	0.080401	0.900233	72.013746	-12.158991	-34.179027			
29254		1.994861	8.951789	3.016496	0.135278	0.067267	0.886800	72.041899	-12.637914	-33.971616			
29255		2.176142	8.758717	3.024994	0.179729	0.072629	0.847834	72.095479	-13.088941	-33.772584			
29256		2.315158	8.565296	3.133406	0.248848	0.097545	0.788226	72.185760	-13.509114	-33.566254			
29257		2.209801	8.464424	3.238254	0.350986	0.101767	0.739128	72.335581	-13.896385	-33.371253			
29258		2.244622	8.612966	3.347313	0.454824	0.081722	0.712117	72.546881	-14.278696	-33.189008			
29259		2.151161	8.720014	3.369447	0.522196	0.036684	0.711527	72.803225	-14.663341	-33.037875			
29260		2.117801	8.897266	3.150501	0.527519	-0.029357	0.706952	73.070731	-15.062861	-32.922356			
29261		2.250090	8.855602	2.701694	0.510532	-0.038644	0.696015	73.331177	-15.452804	-32.819826			
29262		2.276331	8.997874	2.675001	0.471778	-0.027139	0.696650	73.566189	-15.847106	-32.708133			
29263		2.336898	8.914549	2.567357	0.424256	-0.015705	0.702536	73.772730	-16.237740	-32.594311			
29264		2.407354	8.862412	2.557720	0.416688	0.012670	0.698690	73.968911	-16.627442	-32.462074			
29265		2.531772	8.844422	2.613323	0.393103	0.025755	0.675186	74.151208	-16.997227	-32.331218			
29266		2.616721	8.663145	2.516158	0.441298	0.036823	0.646527	74.358897	-17.355098	-32.195794			
29267		2.494846	8.862588	2.703872	0.495298	0.011007	0.616099	74.604332	-17.695440	-32.085328			
29268		2.655331	8.959221	2.583589	0.509792	-0.027015	0.586162	74.864802	-18.030484	-31.999239			
29269		2.841638	9.133334	2.498171	0.503785	-0.044169	0.558285	75.127609	-18.347952	-31.932749			
29270		3.158711	9.375124	2.311406	0.459261	-0.036336	0.558025	75.362196	-18.669320	-31.859320			
29271		3.394598	9.591045	2.218893	0.367077	0.010589	0.588263	75.534911	-18.996025	-31.758584			
29272		3.563488	9.623120	2.118499	0.261874	0.076779	0.632108	75.630758	-19.342706	-31.609187			
29273		3.361472	9.470326	2.305190	0.180226	0.125393	0.676680	75.668488	-19.702524	-31.428310			
29274		3.164428	9.253227	2.356096	0.148752	0.112545	0.702733	75.687007	-20.083535	-31.247057			
29275		3.115264	9.211234	2.588719	0.136756	0.059816	0.697553	75.709773	-20.464373	-31.101309			
29276		3.314870	9.107441	2.667594	0.119792	0.005418	0.689806	75.732324	-20.853329	-30.985097			
29277		3.640407	9.033759	2.599916	0.100163	-0.017720	0.691119	75.749041	-21.241641	-30.886013			
29278		3.843951	8.742924	2.402247	0.129531	0.008174	0.691968	75.774814	-21.631399	-30.767595			
29279		3.815204	8.679377	2.456576	0.209600	0.038039	0.713330	75.839305	-22.024327	-30.631738			
29280		3.802758	8.587465	2.456776	0.291719	0.068162	0.719181	75.941420	-22.421074	-30.473462			
29281		3.688999	8.498895	2.440206	0.398205	0.074652	0.724711	76.103421	-22.815738	-30.314678			
29282		3.633242	8.797889	2.532323	0.451651	0.059551	0.721793	76.297531	-23.215845	-30.162639			
29283		3.569199	9.017349	2.557441	0.427779	0.006027	0.721079	76.491939	-23.618686	-30.047889			
29284		3.725918	9.012591	2.456011	0.358135	-0.046055	0.746785	76.655691	-24.047500	-29.958574			
29285		3.762482	8.868393	2.247493	0.285595	-0.085551	0.793433	76.786519	-24.503338	-29.891155			
29286		3.699846	8.630892	2.072683	0.228626	-0.117437	0.841561	76.888030	-24.994553	-29.833707			
29287		3.834660	8.402519	1.894835	0.170110	-0.139966	0.866212	76.962065	-25.498282	-29.790699			
29288		3.956283	7.981282	1.774953	0.121189	-0.136957	0.863780	77.005429	-26.004427	-29.743158			
29289		4.325330	7.568752	1.540443	0.108937	-0.095639	0.837296	77.033618	-26.486375	-29.677269			
29290		4.418419	7.025012	1.295669	0.146529	0.005680	0.780941	77.056275	-26.928015	-29.552625			
29291		4.292231	6.741234	1.299591	0.249173	0.089292	0.699158	77.120146	-27.309215	-29.390714			
29292		4.296161	6.709357	1.367227	0.343395	0.144353	0.604728	77.225760	-27.635174	-29.204050			
29293		4.243245	6.621638	1.322899	0.446348	0.197852	0.501997	77.382426	-27.893046	-29.002295			
29294		4.288906	6.820894	1.389817	0.532285	0.234196	0.428050	77.580278	-28.110026	-28.784441			
29295		4.462903	7.192040	1.505236	0.537802	0.250036	0.383436	77.780606	-28.296323	-28.567089			
29296		4.513155	7.293419	1.558815	0.458399	0.256532	0.362844	77.932764	-28.475409	-28.344613			
29297		4.618889	7.283884	1.602780	0.349723	0.259549	0.366111	78.022524	-28.651858	-28.123908			
29298		4.648855	7.260046	1.669397	0.241903	0.271978	0.351400	78.045397	-28.823366	-27.892859			
29299		4.698410	7.057443	1.745075	0.152959	0.272163	0.333170	78.019282	-28.980043	-27.668024			
29300		4.637104	6.636749	1.653643	0.115882	0.262399	0.296665	77.975023	-29.121983	-27.449624			
29301		4.747576	6.400133	1.730772	0.133825	0.242748	0.264901	77.950336	-29.243685	-27.252180			
29302		4.787046	6.371263	1.781210	0.171143	0.215338	0.232543	77.955652	-29.355346	-27.071958			
29303		4.780129	6.396298	1.801139	0.189799	0.175984	0.188688	77.988400	-29.442345	-26.927506			
29304		4.881590	6.554514	1.930001	0.178253	0.129308	0.139814	78.030630	-29.512620	-26.814936			
29305		4.843309	6.636748	2.067135	0.125430	0.088815	0.088449	78.060593	-29.553943	-26.740250			
29306		4.814271	6.791287	2.191010	0.065291	0.018435	0.057245	78.078630	-29.591330	-26.710182			
29307		4.855139	6.788660	2.081904	0.022448	-0.049964	0.029372	78.097673	-29.615999	-26.732997			
29308		4.812900	6.826157	1.851840	0.013811	-0.085399	-0.011460	78.123774	-29.627265	-26.779120			
29309		4.793796	7.045423	1.785477	0.023763	-0.099409	-0.053945	78.164930	-29.611022	-26.845141			
29310		4.811855	7.269518	1.637642	0.007770	-0.084380	-0.105134	78.193430	-29.569705	-26.903121			
29311		4.675167	7.492655	1.489589	-0.002952	-0.053124	-0.142767	78.210345	-29.498171	-26.951190			
29312		4.631210	7.753353	1.473507	-0.009313	-0.015007	-0.168999	78.211174	-29.412952	-26.972880			
29313		4.555512	7.903566	1.383152	0.000762	0.038502	-0.197750	78.204757	-29.299854	-26.969279			
29314		4.446227	8.103665	1.389105	0.038248	0.082783	-0.219737	78.205444	-29.174715	-26.934867			
29315		4.406413	8.365050	1.497963	0.065809	0.123377	-0.223769	78.211507	-29.037092	-26.880276			
29316		4.518959	8.542994	1.549596	0.067532	0.156566	-0.213106	78.205865	-28.906939	-26.797809			
29317		4.535332	8.716965	1.643038	0.048074	0.193138	-0.199880	78.178989	-28.774528	-26.695539			
29318		4.530611	8.840030	1.852414	0.005022	0.207814	-0.192379	78.120979	-28.649779	-26.577967			
29319		4.421477	8.832741	1.978625	-0.049756	0.197057	-0.169490	78.035542	-28.533767	-26.469641			
29320		4.353022	8.783156	2.059249	-0.081160	0.163640	-0.139794	77.938849	-28.443308	-26.373918			
29321		4.318462	8.736210	2.185162	-0.101280	0.112825	-0.106114	77.845894	-28.372620	-26.311197			
29322		4.367675	8.670880	2.152141	-0.106639	0.061531	-0.082542	77.762046	-28.326137	-26.273242			
29323		4.296930	8.599272	2.134372	-0.106714	0.019120	-0.058599	77.691351	-28.293310	-26.263826			
29324		4.227633	8.450564	1.977657	-0.084623	-0.007233	-0.043614	77.638295	-28.276794	-26.264511			
29325		4.164204	8.382691	1.977336	-0.043722	-0.025992	-0.031981	77.615549	-28.264393	-26.280118			
29326		3.961654	8.360544	1.983424	-0.012666	-0.058843	-0.013876	77.617261	-28.270707	-26.309636			
29327		3.678714	8.427941	2.006061	0.008561	-0.114113	0.020699	77.647533	-28.298606	-26.373907			
29328		3.420099	8.351258	1.948601	0.005552	-0.194471	0.065170	77.695393	-28.365484	-26.478981			
29329		3.183545	8.261110	1.840748	-0.030165	-0.273339	0.100742	77.746608	-28.457514	-26.633637			
29330		2.894002	8.092283	1.556586	-0.080272	-0.347228	0.146053	77.786867	-28.587714	-26.825602			
29331		2.845617	7.885590	1.247665	-0.117162	-0.413129	0.171417	77.827199	-28.736041	-27.060255			
29332		3.196618	7.697523	0.927531	-0.135380	-0.400956	0.207003	77.849707	-28.906259	-27.279330			
29333		3.409536	7.449403	0.987137	-0.121204	-0.337162	0.209596	77.863190	-29.066641	-27.460956			
29334		3.785054	7.383688	0.940016	-0.118758	-0.244171	0.167268	77.850543	-29.195431	-27.585897			
29335		4.009910	7.259339	1.002675	-0.093962	-0.100670	0.105004	77.813432	-29.268743	-27.630566			
29336		4.191852	7.157184	1.145886	-0.050082	0.057731	0.035459	77.754780	-29.287212	-27.580015			
29337		4.106379	7.145056	1.293929	0.001714	0.227048	-0.043256	77.679757	-29.237657	-27.434936			
29338		3.735497	7.242645	1.668716	0.052587	0.322765	-0.101456	77.606598	-29.146900	-27.233644			
29339		3.640098	7.279573	1.783494	0.084234	0.358009	-0.128258	77.544482	-29.033330	-27.017084			
29340		3.508291	7.296267	1.630648	0.081399	0.360223	-0.105116	77.477348	-28.935324	-26.793165			
29341		3.258627	7.013097	1.268972	0.095718	0.331765	-0.066523	77.426640	-28.859143	-26.585275			
29342		3.389704	7.529260	1.565591	0.062164	0.235300	-0.071132	77.385391	-28.795200	-26.436973			
29343		3.837217	7.695426	1.182224	-0.085126	0.144446	-0.055352	77.288399	-28.748430	-26.347371			
29344		4.318138	7.202696	0.664351	-0.139167	0.151800	-0.017277	77.154086	-28.724578	-26.245027			
29345		4.381903	6.866058	0.405293	-0.113023	0.254641	-0.015621	77.004859	-28.685528	-26.079759			
29346		4.272394	6.771131	0.505370	-0.061056	0.397578	-0.043513	76.842792	-28.614871	-25.824954			
29347		4.252804	6.793896	0.626072	-0.031248	0.520173	-0.111220	76.667296	-28.486829	-25.505874			
29348		4.262108	6.871908	0.787391	-0.024272	0.640735	-0.203459	76.466420	-28.293457	-25.122092			
29349		4.347695	7.037716	0.930180	-0.046823	0.721585	-0.281373	76.237178	-28.041481	-24.704079			
29350		4.753234	7.125033	1.010446	-0.099048	0.810973	-0.355497	75.959263	-27.737528	-24.240192			
29351		4.998960	7.032589	1.076585	-0.139834	0.937998	-0.410340	75.629757	-27.379920	-23.712170			
29352		5.089989	6.936698	1.144943	-0.154485	1.076694	-0.450250	75.259833	-26.980824	-23.104450			
29353		5.079877	6.982732	1.381298	-0.145382	1.246243	-0.487190	74.857471	-26.529155	-22.407014			
29354		4.889137	7.080809	1.502869	-0.132122	1.385941	-0.529088	74.435396	-26.032516	-21.632582			
29355		4.595917	7.186441	1.751201	-0.112169	1.481222	-0.565633	74.012057	-25.491965	-20.818170			
29356		4.277522	7.394298	1.854747	-0.105246	1.539153	-0.620184	73.592136	-24.910885	-19.981395			
29357		4.009352	7.699235	1.984488	-0.097014	1.561041	-0.685535	73.188276	-24.280819	-19.156873			
29358		3.712104	8.093109	2.192011	-0.106990	1.520928	-0.755217	72.805392	-23.618400	-18.372896			
29359		3.408051	8.221833	2.135780	-0.114964	1.444637	-0.837570	72.454243	-22.915222	-17.663587			
29360		3.073994	8.362559	2.138603	-0.071313	1.318877	-0.895455	72.171536	-22.202913	-17.042238			
29361		3.028989	8.506089	2.164611	0.001865	1.189718	-0.944546	71.972356	-21.480075	-16.517666			
29362		2.958741	8.702813	2.172035	0.077568	1.095227	-1.005026	71.848187	-20.743747	-16.059524			
29363		3.077938	9.078545	2.282327	0.149827	1.049924	-1.070481	71.786048	-19.975200	-15.648777			
29364		3.409371	9.595513	2.390458	0.172430	1.080891	-1.125110	71.740329	-19.174880	-15.228371			
29365		3.343167	9.950198	2.545686	0.129311	1.155255	-1.157118	71.664921	-18.339491	-14.779253			
29366		2.995511	10.183042	2.645406	0.068361	1.209013	-1.181232	71.553824	-17.484410	-14.302617			
29367		2.753517	10.213974	2.790012	0.016093	1.210263	-1.185936	71.420921	-16.621769	-13.835301			
29368		2.435754	10.315470	2.937230	-0.029624	1.142928	-1.160867	71.278871	-15.787692	-13.400600			
29369		2.240295	10.214120	3.104924	-0.064566	1.032230	-1.136719	71.139092	-14.982451	-13.032312			
29370		2.319578	10.113127	3.140179	-0.088528	0.910624	-1.111203	71.007213	-14.216263	-12.725912			
29371		2.357835	10.205622	3.141174	-0.120112	0.798143	-1.082671	70.875466	-13.482444	-12.484215			
29372		2.332032	10.126305	3.157108	-0.168508	0.685360	-1.051306	70.732373	-12.789619	-12.297128			
29373		2.285387	9.982118	3.077712	-0.190852	0.611268	-1.039037	70.587410	-12.113709	-12.155480			
29374		2.282399	9.848044	3.054328	-0.181780	0.587802	-1.058198	70.453193	-11.434891	-12.028055			
29375		2.344269	9.877148	3.273678	-0.154091	0.645515	-1.068805	70.330857	-10.735694	-11.877326			
29376		2.274304	9.832344	3.527468	-0.149448	0.754266	-1.068237	70.202747	-10.018786	-11.664142			
29377		2.021294	9.738469	3.697483	-0.147314	0.851352	-1.059391	70.069478	-9.283939	-11.402899			
29378		1.960143	9.857701	3.912375	-0.175518	0.901034	-1.027729	69.918648	-8.559166	-11.105957			
29379		1.710280	9.760930	3.958844	-0.245614	0.908826	-0.967616	69.729200	-7.860928	-10.800238			
29380		1.495163	9.565872	4.050328	-0.312999	0.862939	-0.897943	69.506541	-7.211621	-10.503614			
29381		1.408578	9.391069	4.069706	-0.355116	0.791972	-0.823843	69.266061	-6.611770	-10.238102			
29382		1.200517	9.122509	4.059741	-0.345620	0.689790	-0.800007	69.039423	-6.047882	-10.020772			
29383		1.142358	8.987976	4.197841	-0.298584	0.595603	-0.838090	68.848046	-5.478823	-9.868993			
29384		1.334720	9.059006	4.334408	-0.260988	0.512338	-0.865762	68.684182	-4.915215	-9.764857			
29385		1.397288	9.257828	4.396829	-0.261648	0.458777	-0.897444	68.524173	-4.342212	-9.702413			
29386		1.365493	9.801034	4.742697	-0.341107	0.424731	-0.916980	68.320561	-3.769294	-9.659366			
29387		1.268633	10.365582	5.010289	-0.551359	0.371008	-0.899506	67.998948	-3.213441	-9.648668			
29388		1.187968	10.751859	5.172353	-0.850302	0.322762	-0.820439	67.506235	-2.713561	-9.645471			
29389		0.959636	11.076355	5.227346	-1.234321	0.261317	-0.705257	66.794569	-2.284580	-9.659295			
29390		0.863130	10.957106	5.127767	-1.614981	0.209942	-0.588294	65.864272	-1.932779	-9.674308			
29391		0.655716	10.506164	5.076128	-1.894546	0.176383	-0.524214	64.774606	-1.619039	-9.702734			
29392		0.679962	10.268759	5.181830	-2.044410	0.144395	-0.507492	63.598708	-1.326338	-9.744583			
29393		0.932421	9.741625	5.175303	-2.089842	0.182712	-0.487628	62.396850	-1.031042	-9.772937			
29394		1.160908	9.072296	5.466744	-1.996713	0.281997	-0.478775	61.246794	-0.717939	-9.749503			
29395		1.147911	8.932803	5.449710	-1.819574	0.407428	-0.458902	60.198440	-0.375396	-9.669191			
29396		1.206915	9.512966	5.637636	-1.672922	0.582393	-0.434800	59.233575	0.002924	-9.495708			
29397		1.087772	10.225095	6.084412	-1.654009	0.743280	-0.357843	58.281771	0.398315	-9.232635			
29398		1.095015	10.410675	6.804045	-1.748921	0.863830	-0.217122	57.277556	0.762227	-8.868726			
29399		1.014625	10.615316	7.263999	-1.954967	0.959179	-0.075585	56.159558	1.099407	-8.427674			
29400		1.084960	10.696490	7.697937	-2.276625	1.024530	0.073117	54.860460	1.391938	-7.907970			
29401		1.014211	10.183580	7.905532	-2.630939	1.077015	0.175251	53.363078	1.671964	-7.343625			
29402		1.033175	9.391112	7.885897	-2.890555	1.125831	0.240633	51.719966	1.949399	-6.734822			
29403		0.806199	8.539195	8.162283	-2.983047	1.159009	0.262600	50.028325	2.251653	-6.118957			
29404		0.556442	8.873034	8.615531	-2.955562	1.012793	0.421337	48.353444	2.442720	-5.508355			
29405		0.000580	8.131970	8.735513	-2.863460	0.907145	0.500668	46.733314	2.582174	-4.925327			
29406		-0.315434	7.525013	9.365281	-2.529169	0.673011	0.586240	45.301180	2.602957	-4.400739			
29407		-0.144891	8.635454	11.296250	-2.213387	0.350897	0.715981	44.047344	2.458021	-3.961884			
29408		0.352760	8.936155	11.777228	-2.094222	-0.001334	0.746258	42.853353	2.158356	-3.638493			
29409		0.798658	8.274093	12.109868	-1.893925	-0.242765	0.664048	41.769856	1.800112	-3.445313			
29410		0.793479	7.240404	11.590120	-1.642395	-0.413488	0.477436	40.823218	1.436476	-3.382553			
29411		1.186853	5.740074	10.636075	-1.217571	-0.510864	0.260093	40.118987	1.117980	-3.453863			
29412		1.106102	5.074429	9.767720	-0.746817	-0.546521	0.048436	39.680525	0.854646	-3.619525			
29413		0.949296	4.934465	8.937405	-0.326620	-0.528357	-0.127275	39.485124	0.668773	-3.863326			
29414		0.752535	5.269191	8.254484	-0.072096	-0.483287	-0.249251	39.432962	0.540177	-4.135318			
29415		0.485561	5.464574	7.672858	0.047753	-0.425880	-0.317236	39.452754	0.468194	-4.425397			
29416		0.242615	5.824961	7.240607	0.074269	-0.368231	-0.326823	39.485235	0.418617	-4.689597			
29417		0.264074	6.191150	6.916265	-0.006490	-0.268059	-0.286621	39.474927	0.405459	-4.908677			
29418		0.423673	6.409941	6.689620	-0.129428	-0.119816	-0.202916	39.392023	0.420487	-5.027471			
29419		0.329218	6.567949	6.770041	-0.251971	0.038619	-0.123201	39.242365	0.483315	-5.062727			
29420		0.097798	6.765358	7.083812	-0.362941	0.130819	-0.060556	39.027052	0.557485	-5.027461			
29421		-0.070798	6.901619	7.499335	-0.458449	0.149518	-0.009453	38.759941	0.628580	-4.972548			
29422		-0.219477	6.756145	7.943885	-0.510189	0.090727	0.040129	38.460832	0.649054	-4.907191			
29423		-0.236958	6.553414	8.242943	-0.478652	-0.005757	0.089188	38.182059	0.615846	-4.863809			
29424		-0.221579	6.344337	8.835009	-0.334038	-0.163180	0.117002	37.983318	0.495262	-4.853862			
29425		0.311935	6.347404	8.751798	-0.227103	-0.300670	0.087522	37.847758	0.329639	-4.914828			
29426		0.807510	6.222187	8.514915	-0.178951	-0.310145	0.030643	37.737440	0.172870	-4.995034			
29427		1.021157	6.024072	8.340647	-0.122427	-0.248627	-0.020259	37.662105	0.068371	-5.085994			
29428		1.000226	5.973218	8.304785	-0.050347	-0.166784	-0.044141	37.625847	0.002344	-5.149166			
29429		0.870264	6.182836	8.317399	-0.003757	-0.099374	-0.065600	37.618708	-0.018691	-5.208349			
29430		0.717733	6.241257	8.303795	0.001800	-0.056588	-0.077451	37.612424	-0.023321	-5.247675			
29431		0.578437	6.209007	8.193620	0.001422	-0.026921	-0.074274	37.608258	-0.008454	-5.285447			
29432		0.442329	6.210978	8.132285	0.008949	-0.020373	-0.080794	37.606104	0.004383	-5.313371			
29433		0.301510	6.235974	8.079517	0.026292	-0.021487	-0.086840	37.616169	0.026105	-5.354938			
29434		0.248988	6.261463	8.066340	0.041053	-0.020392	-0.096168	37.632435	0.044276	-5.389715			
29435		0.212825	6.255411	8.073472	0.050927	-0.019606	-0.105034	37.656580	0.073238	-5.438856			
29436		0.257888	6.346756	8.077610	0.058069	-0.006736	-0.103879	37.682617	0.100335	-5.472274			
29437		0.331209	6.397870	8.192663	0.058635	0.017360	-0.096925	37.711163	0.143255	-5.504753			
29438		0.340586	6.427134	8.268117	0.058721	0.039269	-0.087358	37.737652	0.185424	-5.514419			
29439		0.349320	6.454798	8.283602	0.066188	0.054211	-0.080898	37.770553	0.239443	-5.526659			
29440		0.344673	6.493338	8.268125	0.077359	0.058146	-0.074420	37.807801	0.285595	-5.523660			
29441		0.344384	6.510700	8.242585	0.092595	0.058174	-0.071097	37.855846	0.337975	-5.529989			
29442		0.308597	6.427857	8.119658	0.105672	0.054168	-0.064320	37.909390	0.378736	-5.523590			
29443		0.332218	6.388727	7.984752	0.128408	0.043990	-0.071142	37.977915	0.424729	-5.534826			
29444		0.307724	6.429547	7.895174	0.140221	0.038593	-0.072923	38.051248	0.461457	-5.537554			
29445		0.243448	6.504998	7.833142	0.141947	0.030445	-0.079090	38.127448	0.504176	-5.557035			
29446		0.245979	6.580342	7.801875	0.129244	0.024863	-0.078272	38.194512	0.536606	-5.566779			
29447		0.257499	6.723648	7.868652	0.101769	0.016374	-0.074907	38.247643	0.571547	-5.589259			
29448		0.248431	6.861351	7.867673	0.055190	0.013690	-0.058503	38.272438	0.591931	-5.593845			
29449		0.222254	6.974678	7.910927	-0.009648	0.009264	-0.038470	38.261864	0.610757	-5.602420			
29450		0.249803	6.875649	7.967809	-0.061721	-0.001219	-0.016935	38.219970	0.609641	-5.593420			
29451		0.280465	6.824851	7.965689	-0.102055	-0.005431	0.000509	38.156585	0.608026	-5.589662			
29452		0.261871	6.686602	8.018448	-0.126412	-0.005422	0.009563	38.077876	0.595588	-5.570033			
29453		0.279196	6.480609	8.054894	-0.129019	-0.008252	0.014774	37.999102	0.587668	-5.560820			
29454		0.266858	6.371702	8.036359	-0.109979	-0.005637	0.014699	37.929917	0.573301	-5.538787			
29455		0.298654	6.264976	8.036675	-0.085957	-0.009333	0.007966	37.875782	0.567306	-5.533004			
29456		0.255074	6.204236	8.022725	-0.058245	-0.010622	0.005754	37.836227	0.553808	-5.516630			
29457		0.260399	6.178653	8.016180	-0.025334	-0.007855	0.000758	37.816803	0.551017	-5.513573			
29458		0.247759	6.244180	8.044388	-0.003110	-0.008514	-0.005715	37.808829	0.542477	-5.501547			
29459		0.226152	6.298913	8.031908	0.011491	-0.009202	-0.013861	37.810441	0.544208	-5.505571			
29460		0.271082	6.409646	8.047385	0.018798	-0.007853	-0.018367	37.815012	0.540390	-5.498950			
29461		0.230455	6.499702	8.072555	0.013806	0.000091	-0.019340	37.817964	0.548247	-5.502178			
29462		0.234242	6.533014	8.060684	0.009549	-0.001244	-0.014165	37.817350	0.545914	-5.491212			
29463		0.283188	6.509492	8.011851	0.002228	-0.005977	-0.008794	37.813697	0.547314	-5.491791			
29464		0.313989	6.465247	8.003860	-0.002936	-0.003275	-0.007740	37.806037	0.541772	-5.478499			
29465		0.339826	6.388818	8.006870	0.005737	-0.003775	-0.010750	37.804399	0.544851	-5.479179			
29466		0.290508	6.356611	7.997144	0.006946	-0.007483	-0.008090	37.802465	0.537475	-5.467365			
29467		0.312188	6.303431	8.008452	0.021242	-0.008495	-0.014778	37.809682	0.539828	-5.471518			
29468		0.325168	6.350393	8.035057	0.034600	-0.012234	-0.023858	37.823572	0.535799	-5.468377			
29469		0.320727	6.373588	7.981867	0.043571	-0.012399	-0.028331	37.843518	0.541145	-5.480023			
29470		0.292603	6.401882	8.037325	0.054654	-0.015276	-0.034526	37.868909	0.539450	-5.482630			
29471		0.318430	6.439231	8.032574	0.061650	-0.014248	-0.037576	37.899172	0.547217	-5.499094			
29472		0.312035	6.523400	8.095264	0.060442	-0.007156	-0.041110	37.927949	0.551483	-5.501672			
29473		0.305727	6.604593	8.098659	0.045380	-0.003642	-0.038840	37.948922	0.564499	-5.514954			
29474		0.263434	6.587510	8.126340	0.034607	-0.005453	-0.025596	37.963054	0.564034	-5.509763			
29475		0.302260	6.667163	8.151746	0.019403	-0.000422	-0.023030	37.969228	0.572933	-5.514752			
29476		0.304998	6.645831	8.142040	0.001493	0.010044	-0.016693	37.964565	0.576293	-5.499935			
29477		0.293716	6.635251	8.162807	-0.015381	0.016588	-0.014167	37.950916	0.589747	-5.494915			
29478		0.322816	6.586764	8.096840	-0.032248	0.026513	-0.012512	37.927083	0.599034	-5.472265			
29479		0.314620	6.497076	8.112670	-0.038448	0.036511	-0.008522	37.900327	0.619506	-5.457679			
29480		0.351853	6.457713	8.027285	-0.034163	0.042980	-0.007799	37.875562	0.634541	-5.426965			
29481		0.350175	6.547554	8.135071	-0.010008	0.073261	-0.008813	37.865263	0.671743	-5.399589			
29482		0.394478	6.510438	8.255721	0.058522	0.107445	0.005504	37.894036	0.711195	-5.340007			
29483		0.471736	6.363054	8.415466	0.187992	0.143821	0.040040	37.997834	0.763025	-5.265634			
29484		0.445678	6.063416	8.792266	0.340428	0.163765	0.068155	38.188878	0.805473	-5.157518			
29485		0.464438	5.890312	8.769224	0.455906	0.167633	0.035251	38.446412	0.869219	-5.076492			
29486		0.339256	5.931103	8.689160	0.522868	0.162573	-0.043718	38.741268	0.950218	-5.018355			
29487		-0.038612	6.273158	8.664667	0.499859	0.112119	-0.151925	39.022425	1.055718	-5.040155			
29488		0.160381	6.574341	8.274306	0.424165	0.031186	-0.244361	39.258161	1.150479	-5.117914			
29489		0.114481	6.635068	8.016666	0.347123	-0.016066	-0.331678	39.449093	1.264665	-5.265073			
29490		0.053931	6.496386	7.634087	0.361383	-0.069814	-0.368110	39.646510	1.360581	-5.433580			
29491		0.060567	6.320978	7.462529	0.478093	-0.111160	-0.330046	39.911190	1.433380	-5.614040			
29492		0.049474	6.476948	7.477427	0.656800	-0.145133	-0.249965	40.278187	1.454419	-5.757495			
29493		-0.019178	6.934786	7.522689	0.839817	-0.151667	-0.198902	40.751025	1.463064	-5.894939			
29494		-0.183333	7.102021	7.915738	1.043290	-0.207657	-0.177049	41.339796	1.432261	-6.029825			
29495		0.192984	7.190953	8.080994	1.229986	-0.248249	-0.187956	42.035507	1.398216	-6.199180			
29496		0.616969	7.279115	8.245435	1.346988	-0.208852	-0.244036	42.797794	1.396369	-6.363322			
29497		0.799517	7.679656	8.450085	1.368586	-0.146916	-0.278705	43.572932	1.444671	-6.531676			
29498		0.731059	8.837294	8.809997	1.172572	-0.140023	-0.228812	44.236040	1.469607	-6.661555			
29499		0.730381	9.274672	8.767152	0.795099	-0.195865	-0.099511	44.683899	1.429706	-6.775133			
29500		0.787483	8.946816	8.527713	0.457907	-0.262987	0.089311	44.939875	1.278240	-6.824255			
29501		0.557277	8.325155	8.288156	0.255024	-0.361205	0.285518	45.080675	1.016432	-6.849204			
29502		0.421367	7.697324	8.011569	0.233730	-0.490113	0.439847	45.209614	0.630984	-6.849308			
29503		0.442998	7.452810	7.871745	0.330561	-0.612961	0.513004	45.393938	0.175192	-6.886429			
29504		0.623964	7.551881	7.734765	0.435319	-0.702436	0.515283	45.638691	-0.326287	-6.945361			
29505		0.896997	7.727597	7.674303	0.504957	-0.725217	0.452676	45.924300	-0.801841	-7.056492			
29506		1.103083	7.931897	7.754961	0.515851	-0.705159	0.367695	46.217625	-1.242868	-7.179778			
29507		1.363667	7.955515	7.986166	0.503918	-0.667812	0.313910	46.505245	-1.637042	-7.326812			
29508		1.516608	7.904941	8.235570	0.488578	-0.634881	0.323225	46.784749	-2.030681	-7.442300			
29509		1.378088	8.010724	8.265738	0.487421	-0.647915	0.366452	47.063987	-2.437603	-7.564348			
29510		1.218604	8.252020	8.352164	0.493775	-0.736404	0.429187	47.348640	-2.914200	-7.684783			
29511		1.235613	8.452335	8.293493	0.471949	-0.863376	0.477516	47.623932	-3.450244	-7.858975			
29512		1.310686	8.784437	8.231522	0.467695	-0.978505	0.518091	47.901013	-4.056520	-8.052583			
29513		1.428205	8.969699	8.266432	0.465817	-1.088544	0.559889	48.181797	-4.712215	-8.296776			
29514		1.653757	9.039122	8.190250	0.463313	-1.175800	0.596750	48.466640	-5.425275	-8.551212			
29515		2.151214	9.033900	8.011863	0.460813	-1.205749	0.625018	48.753842	-6.150925	-8.828297			
29516		2.550326	8.995816	7.893699	0.478124	-1.160760	0.644731	49.052181	-6.876389	-9.065612			
29517		2.915622	8.880087	7.872098	0.527786	-1.062525	0.642218	49.377000	-7.552955	-9.282055			
29518		3.187366	8.806282	7.856456	0.619537	-0.925570	0.607317	49.751436	-8.172016	-9.438426			
29519		3.422700	8.729790	8.005317	0.760594	-0.776222	0.537569	50.202726	-8.694263	-9.576563			
29520		3.679589	8.934284	7.953877	0.939907	-0.590791	0.450570	50.751279	-9.119514	-9.650653			
29521		3.863989	8.795561	7.930453	1.143503	-0.382877	0.336511	51.408833	-9.407831	-9.694919			
29522		3.842139	8.947977	7.981847	1.371200	-0.197220	0.243399	52.189709	-9.598561	-9.672860			
29523		3.441490	9.836870	8.180155	1.527484	-0.129451	0.255213	53.054062	-9.760444	-9.636656			
29524		2.897853	10.512505	8.300772	1.511623	-0.220291	0.387868	53.909506	-10.025902	-9.580194			
29525		2.657514	10.635416	8.218186	1.371980	-0.431654	0.630770	54.687984	-10.464551	-9.564030			
29526		2.670670	10.552124	7.944768	1.154664	-0.717119	0.935660	55.349707	-11.151243	-9.568731			
29527		2.852460	10.189976	7.516701	0.869126	-1.004748	1.232000	55.857422	-12.059893	-9.640617			
29528		3.116440	9.507936	6.998009	0.568941	-1.257710	1.458866	56.206939	-13.167671	-9.749481			
29529		3.340356	8.695787	6.461329	0.301199	-1.461636	1.601789	56.419433	-14.396885	-9.936830			
29530		3.575382	7.921639	6.053425	0.076152	-1.597819	1.662091	56.520864	-15.708416	-10.157318			
29531		3.662179	7.264707	5.821334	-0.127064	-1.686708	1.664009	56.523948	-17.037840	-10.443240			
29532		3.574248	6.477456	5.393259	-0.289011	-1.743155	1.608110	56.455532	-18.369596	-10.758148			
29533		3.556095	5.838957	4.952186	-0.360449	-1.766542	1.463513	56.372887	-19.629153	-11.153121			
29534		3.515273	5.204800	4.564032	-0.380472	-1.799180	1.251984	56.317968	-20.809757	-11.618461			
29535		3.627620	4.499952	3.866697	-0.352858	-1.820334	0.979417	56.326240	-21.856203	-12.209856			
29536		3.973624	3.622347	3.044995	-0.256905	-1.770068	0.708322	56.426719	-22.768111	-12.854088			
29537		4.232576	2.684223	2.247964	-0.098220	-1.658000	0.473614	56.638006	-23.519494	-13.546764			
29538		4.726380	2.122719	1.688823	0.066062	-1.448490	0.292757	56.935372	-24.127343	-14.178826			
29539		5.021696	2.258329	1.355413	0.120223	-1.101841	0.082509	57.224798	-24.511323	-14.725725			
29540		5.054059	2.234111	1.307768	0.045536	-0.647679	-0.148390	57.408667	-24.653939	-15.091730			
29541		4.876476	1.786772	1.411924	-0.067993	-0.214537	-0.377670	57.463078	-24.538978	-15.327287			
29542		4.439474	1.456984	1.197920	-0.105897	0.163180	-0.628379	57.448713	-24.199838	-15.423921			
29543		3.530740	1.192535	1.407706	-0.093162	0.510869	-1.014207	57.417322	-23.553812	-15.489774			
29544		2.620649	1.536744	1.650995	0.002545	0.775804	-1.472671	57.447275	-22.618756	-15.545683			
29545		1.545461	2.518936	2.380905	0.172290	0.967691	-1.915817	57.588173	-21.396322	-15.670670			
29546		0.322701	4.029973	2.958118	0.420660	0.927234	-2.145771	57.902321	-20.088494	-15.861207			
29547		-0.693690	5.347801	3.244807	0.763022	0.634175	-2.111828	58.449265	-18.870165	-16.204239			
29548		-0.927643	6.751892	3.587961	1.095662	0.270915	-2.019818	59.226538	-17.814325	-16.665993			
29549		-0.703082	8.287924	3.672839	1.375345	-0.012026	-1.929062	60.184043	-16.864998	-17.250149			
29550		-0.190536	10.499459	4.028709	1.398724	-0.130615	-1.758138	61.145788	-16.037387	-17.805445			
29551		0.184422	11.945733	4.381478	1.006180	-0.155845	-1.526855	61.855186	-15.312910	-18.314422			
29552		0.285249	12.751065	4.364621	0.371423	-0.101117	-1.324188	62.191758	-14.700958	-18.576981			
29553		0.440027	12.445800	4.069203	-0.283157	0.021965	-1.106684	62.096737	-14.136314	-18.865311			
29554		0.438377	11.396090	3.850866	-0.728191	0.171536	-0.913787	61.732124	-13.656145	-18.885658			
29555		-0.085205	10.347408	3.917334	-0.843173	0.267517	-0.780525	61.261845	-13.191825	-18.960427			
29556		-0.149087	10.016047	4.107344	-0.786372	0.304988	-0.695748	60.834864	-12.786726	-18.849446			
29557		-0.031893	9.705306	4.270942	-0.685996	0.307047	-0.633397	60.441473	-12.385956	-18.868435			
29558		0.018864	9.164779	4.495119	-0.523095	0.273776	-0.551692	60.159855	-12.060620	-18.742095			
29559		0.051550	8.899408	4.691723	-0.315596	0.204766	-0.504792	59.982286	-11.753192	-18.779350			
29560		0.345791	8.828367	4.801448	-0.118297	0.161984	-0.469322	59.937391	-11.498470	-18.701457			
29561		0.484935	9.070368	4.862506	0.018064	0.166393	-0.437029	59.950723	-11.235777	-18.738846			
29562		0.488937	9.058540	4.837389	0.061798	0.204943	-0.447892	59.987479	-10.963736	-18.747799			
29563		0.469557	9.135424	4.937474	0.090883	0.225222	-0.444639	60.036951	-10.680383	-18.757289			
29564		0.690101	9.129150	4.972066	0.097261	0.222747	-0.406288	60.089819	-10.423420	-18.745349			
29565		0.621791	9.229804	5.363419	0.094747	0.219949	-0.375923	60.138239	-10.175700	-18.737028			
29566		0.540058	10.023982	5.664484	0.000853	0.104664	-0.262773	60.138883	-10.023340	-18.743389			
29567		0.592788	9.638167	5.671679	-0.134802	0.046329	-0.247269	60.064533	-9.889112	-18.785377			
29568		0.818663	9.204028	5.275807	-0.143219	0.011745	-0.199872	59.987366	-9.794163	-18.821315			
29569		0.903865	8.754833	5.158588	-0.071067	0.029628	-0.199425	59.948498	-9.688559	-18.858073			
29570		1.004275	8.511031	5.050748	0.045102	0.089133	-0.232409	59.974064	-9.555025	-18.865139			
29571		1.130191	8.615946	5.086939	0.168907	0.174462	-0.279423	60.064334	-9.368224	-18.852114			
29572		1.162395	10.064098	5.636979	0.159611	0.162000	-0.252720	60.150298	-9.203538	-18.828381			
29573		0.887693	11.358885	5.804861	0.112794	0.044189	-0.071912	60.209311	-9.157049	-18.820538			
29574		1.226271	10.720635	5.151730	0.149070	-0.049085	0.090321	60.290402	-9.222773	-18.804371			
29575		1.200423	9.621500	4.870614	0.242451	-0.125494	0.172739	60.426148	-9.346227	-18.811747			
29576		1.402794	8.816225	4.893937	0.315421	-0.184576	0.193576	60.609051	-9.501506	-18.835058			
29577		1.947812	8.185695	4.632969	0.376098	-0.220095	0.165628	60.829853	-9.647873	-18.893191			
29578		2.303210	8.280098	4.601174	0.399416	-0.214801	0.105294	61.068029	-9.767067	-18.958013			
29579		2.251540	8.384102	4.589115	0.393821	-0.177219	0.009541	61.303146	-9.822769	-19.039285			
29580		2.084537	8.668484	4.629132	0.405516	-0.139159	-0.059577	61.546419	-9.837792	-19.112115			
29581		1.979470	9.043849	4.577335	0.431354	-0.130570	-0.073853	61.803039	-9.838071	-19.193002			
29582		2.038012	9.080973	4.389934	0.498842	-0.145744	-0.041325	62.099613	-9.863394	-19.264223			
29583		2.049019	9.325766	4.444594	0.596868	-0.176641	-0.012753	62.452369	-9.906111	-19.352303			
29584		1.966998	9.705020	4.558270	0.694486	-0.255615	0.054720	62.866723	-10.008291	-19.454781			
29585		1.934146	10.196064	4.542293	0.736454	-0.318618	0.099310	63.307589	-10.143854	-19.587668			
29586		2.138238	10.895729	4.657756	0.708284	-0.321067	0.125780	63.733527	-10.297512	-19.707338			
29587		2.362249	11.546557	4.625679	0.572292	-0.260127	0.160600	64.073052	-10.447998	-19.795994			
29588		2.485826	11.553796	4.716586	0.385146	-0.154118	0.205136	64.295365	-10.599452	-19.809691			
29589		2.533904	11.442170	4.702252	0.244729	-0.035025	0.244757	64.422070	-10.736903	-19.760092			
29590		2.426117	11.201522	4.720408	0.156451	0.045413	0.283983	64.490345	-10.879751	-19.649500			
29591		2.308665	11.030627	4.722383	0.131542	0.080275	0.318542	64.536959	-11.027074	-19.520959			
29592		2.254315	10.769984	4.752968	0.144887	0.075172	0.350966	64.591932	-11.197443	-19.377978			
29593		2.132783	10.649268	4.800051	0.216091	0.029880	0.387953	64.688085	-11.393354	-19.258850			
29594		2.172283	10.604743	5.017081	0.288782	-0.065840	0.441960	64.835028	-11.645722	-19.168242			
29595		2.343197	10.478121	4.963639	0.340312	-0.137138	0.472476	65.015322	-11.926637	-19.117475			
29596		2.582667	10.409887	4.955728	0.384936	-0.175288	0.502694	65.225867	-12.237371	-19.071667			
29597		2.679507	10.323642	5.008625	0.434419	-0.206794	0.566617	65.463000	-12.584318	-19.036982			
29598		2.689763	10.271081	4.831382	0.486821	-0.230611	0.615208	65.754180	-12.988440	-18.834334			
29599		2.663996	10.558615	4.689732	0.500910	-0.247664	0.649136	66.030226	-13.388468	-18.804989			
29600		2.787417	10.685217	4.483363	0.465003	-0.245939	0.686441	66.305394	-13.831946	-18.611041			
29601		2.936541	10.609502	4.240115	0.394042	-0.219573	0.738044	66.511896	-14.272509	-18.549013			
29602		2.860297	10.290348	4.127663	0.351632	-0.179276	0.789890	66.704136	-14.752508	-18.320242			
29603		2.891164	10.126396	4.018056	0.343640	-0.176102	0.809392	66.871080	-15.221256	-18.220531			
29604		3.121169	9.902642	3.892892	0.372270	-0.167073	0.818602	67.070900	-15.714376	-17.980282			
29605		3.125028	9.688411	3.807823	0.417491	-0.147093	0.818565	67.274386	-16.182200	-17.865269			
29606		3.088220	9.651524	3.831981	0.469413	-0.148133	0.831312	67.524034	-16.677468	-17.624011			
29607		3.071463	9.784580	3.769143	0.507646	-0.161192	0.870170	67.777188	-17.176659	-17.508500			
29608		3.206248	9.929592	3.804112	0.487485	-0.165938	0.926489	68.032683	-17.727094	-17.260962			
29609		3.352665	10.013146	3.723372	0.422890	-0.153334	0.971166	68.228014	-18.279259	-17.122050			
29610		3.368030	9.666704	3.578667	0.376819	-0.138987	1.003780	68.392566	-18.849970	-16.963268			
29611		3.374808	9.543111	3.495298	0.376802	-0.127519	1.023147	68.551157	-19.425194	-16.800779			
29612		3.453999	9.243871	3.354101	0.401399	-0.108972	1.025606	68.720340	-20.002053	-16.622581			
29613		3.476196	8.977648	3.307071	0.450646	-0.089762	1.011358	68.912506	-20.564078	-16.443710			
29614		3.567907	8.827772	3.174121	0.532062	-0.064408	1.009182	69.146631	-21.124079	-16.246627			
29615		3.388282	8.797393	3.170421	0.593643	-0.060128	0.984908	69.414666	-21.667267	-16.060024			
29616		3.328476	8.804016	3.258169	0.633324	-0.091529	0.950079	69.715606	-22.202554	-15.895663			
29617		3.288174	8.674851	3.184917	0.662874	-0.156620	0.944611	70.046628	-22.744873	-15.778581			
29618		3.446377	8.570928	2.982103	0.734128	-0.191333	0.985167	70.424611	-23.319959	-15.671057			
29619		3.602399	8.805670	2.954457	0.752708	-0.198488	1.002693	70.812689	-23.902984	-15.573252			
29620		3.647043	8.787781	2.834708	0.703045	-0.189465	0.996261	71.172589	-24.484797	-15.469936			
29621		3.660600	8.711423	2.654834	0.638711	-0.164904	0.981177	71.489938	-25.051056	-15.363500			
29622		3.702889	8.715950	2.570307	0.543091	-0.122766	0.974080	71.743758	-25.609559	-15.230794			
29623		3.848147	8.546337	2.421384	0.438582	-0.076904	0.963628	71.924836	-26.151376	-15.079140			
29624		3.922863	8.237791	2.329042	0.384275	-0.012343	0.946953	72.059296	-26.676150	-14.887713			
29625		3.942445	7.945277	2.316009	0.383836	0.050293	0.943932	72.173773	-27.185518	-14.663758			
29626		3.872773	7.777857	2.386832	0.403901	0.093879	0.929987	72.288335	-27.683077	-14.411259			
29627		3.893925	7.584014	2.362138	0.434894	0.113704	0.936304	72.411092	-28.178076	-14.149926			
29628		3.977583	7.503033	2.465600	0.469098	0.133426	0.945705	72.546078	-28.678257	-13.870070			
29629		3.995843	7.636102	2.583058	0.451051	0.132086	0.949387	72.667330	-29.178295	-13.594755			
29630		4.154534	7.694764	2.564210	0.382187	0.129667	0.960977	72.747701	-29.688331	-13.314056			
29631		4.281763	7.568049	2.634376	0.294265	0.138156	0.985461	72.768786	-30.207717	-13.026583			
29632		4.394782	7.227738	2.527614	0.216257	0.154232	0.996914	72.736909	-30.733329	-12.720954			
29633		4.543868	6.610533	2.502087	0.191632	0.180560	0.988859	72.678534	-31.247136	-12.402117			
29634		4.625450	6.209229	2.490279	0.225533	0.205741	0.950035	72.632657	-31.737868	-12.068575			
29635		4.627399	6.074918	2.579705	0.249314	0.221660	0.868868	72.599266	-32.178594	-11.743173			
29636		4.778968	5.969144	2.587117	0.255167	0.228179	0.766877	72.575998	-32.565097	-11.428315			
29637		4.812303	5.941319	2.707517	0.256933	0.238977	0.673595	72.556976	-32.895871	-11.128263			
29638		4.781342	6.193185	2.850230	0.218501	0.223707	0.596531	72.528620	-33.189937	-10.848381			
29639		4.681397	6.253249	2.833502	0.152710	0.151221	0.546555	72.491843	-33.466153	-10.629473			
29640		4.798290	6.170512	2.766384	0.135532	0.086673	0.512952	72.471627	-33.737958	-10.454606			
29641		4.766102	6.309893	2.829132	0.126337	0.013753	0.483320	72.474862	-34.003229	-10.337698			
29642		4.814004	6.429938	2.642669	0.115379	-0.048109	0.438647	72.499627	-34.257693	-10.266222			
29643		4.872730	6.508571	2.512439	0.109410	-0.083249	0.389722	72.539348	-34.488589	-10.232618			
29644		5.036720	6.613943	2.398811	0.100272	-0.095646	0.332239	72.585424	-34.693106	-10.214942			
29645		5.200845	6.640422	2.276053	0.114229	-0.085914	0.280258	72.641907	-34.864654	-10.206224			
29646		5.177541	6.651389	2.185091	0.157252	-0.056300	0.235539	72.717259	-35.009611	-10.182821			
29647		5.211239	6.697834	2.084355	0.212790	-0.014805	0.203494	72.812309	-35.127101	-10.143002			
29648		5.109938	6.925572	2.147162	0.260873	0.028463	0.178944	72.921275	-35.226847	-10.074961			
29649		5.155276	7.317176	2.195969	0.249644	0.057411	0.144875	73.016554	-35.300224	-9.999151			
29650		5.110664	7.406443	2.289945	0.174976	0.066122	0.140655	73.066186	-35.372798	-9.913962			
29651		5.080992	7.353110	2.245393	0.079142	0.057129	0.130489	73.065449	-35.438444	-9.841304			
29652		5.186334	7.153936	2.210085	0.003659	0.049546	0.117103	73.025937	-35.500776	-9.772130			
29653		5.317817	6.887694	2.267325	-0.024171	0.049484	0.093748	72.973151	-35.547506	-9.711979			
29654		5.451717	6.629997	2.248572	-0.003290	0.063905	0.055030	72.931260	-35.573309	-9.645794			
29655		5.393414	6.612396	2.330689	0.051448	0.076337	0.015130	72.920636	-35.572402	-9.583709			
29656		5.535487	6.666216	2.289927	0.112443	0.078321	-0.026674	72.949177	-35.551071	-9.524594			
29657		5.574705	6.829699	2.348948	0.182602	0.090368	-0.049333	73.015982	-35.512546	-9.466374			
29658		5.539798	7.198681	2.510805	0.201545	0.081177	-0.065232	73.099052	-35.469766	-9.413116			
29659		5.625351	7.428494	2.450341	0.162986	0.071379	-0.078313	73.165498	-35.418636	-9.373529			
29660		5.634416	7.412534	2.473481	0.125506	0.058335	-0.091041	73.216906	-35.365563	-9.340823			
29661		5.667440	7.551986	2.411704	0.109840	0.035887	-0.090144	73.268113	-35.313870	-9.327431			
29662		5.718383	7.672046	2.403949	0.088357	0.016315	-0.084962	73.313799	-35.271079	-9.321685			
29663		5.778509	7.728210	2.361311	0.064241	0.010368	-0.086014	73.348268	-35.225867	-9.324528			
29664		5.791330	7.791960	2.293986	0.047536	0.012903	-0.084879	73.371826	-35.183665	-9.321013			
29665		5.800112	7.870602	2.400351	0.023696	0.020026	-0.079680	73.378569	-35.140348	-9.316052			
29666		5.778947	7.818895	2.363848	-0.008478	0.011764	-0.083647	73.370321	-35.098991	-9.313067			
29667		5.720722	7.733467	2.362634	-0.027667	0.017987	-0.093826	73.350068	-35.048245	-9.312328			
29668		5.688806	7.739725	2.340645	-0.022965	0.017633	-0.104596	73.333679	-34.994408	-9.309661			
29669		5.602799	7.736968	2.320688	-0.010376	0.007705	-0.107993	73.328928	-34.937578	-9.318679			
29670		5.484032	7.804141	2.334347	-0.018834	-0.008489	-0.110857	73.325634	-34.884571	-9.334810			
29671		5.372950	7.893040	2.343032	-0.047294	-0.033254	-0.091205	73.313456	-34.843696	-9.367861			
29672		5.062513	7.909574	2.471742	-0.089104	-0.085023	-0.039122	73.290898	-34.842578	-9.420924			
29673		4.817495	7.943513	2.545835	-0.151862	-0.165080	0.011366	73.257435	-34.879748	-9.521556			
29674		4.725650	7.945569	2.576063	-0.227534	-0.237928	0.068734	73.201714	-34.962929	-9.655559			
29675		4.681152	7.810592	2.538929	-0.321370	-0.298282	0.104523	73.111759	-35.073469	-9.826596			
29676		4.575921	7.547188	2.560231	-0.409492	-0.330655	0.106374	72.983482	-35.192872	-10.015501			
29677		4.508090	7.230895	2.520199	-0.488934	-0.357299	0.072149	72.824692	-35.296242	-10.232665			
29678		4.710208	6.875686	2.306409	-0.516974	-0.337761	0.043991	72.645414	-35.383349	-10.439408			
29679		4.719015	6.683651	2.337626	-0.508377	-0.321482	0.003807	72.470249	-35.444283	-10.646634			
29680		4.707172	6.429236	2.280624	-0.480107	-0.296100	-0.057513	72.308535	-35.469668	-10.846881			
29681		4.787881	6.251348	2.201330	-0.399911	-0.264179	-0.105879	72.186885	-35.461653	-11.038966			
29682		4.753896	6.313554	2.102120	-0.317748	-0.206526	-0.142960	72.093945	-35.425391	-11.197573			
29683		4.593779	6.487672	2.109984	-0.233314	-0.166003	-0.162983	72.036615	-35.369426	-11.336231			
29684		4.563815	6.680925	2.131174	-0.173541	-0.159679	-0.156358	72.009583	-35.317808	-11.466411			
29685		4.720805	6.817804	2.127766	-0.140981	-0.126829	-0.138104	71.986665	-35.268598	-11.573418			
29686		4.774129	6.854347	2.122765	-0.119342	-0.083144	-0.119221	71.956331	-35.223648	-11.644523			
29687		4.654683	6.908965	2.098379	-0.085684	-0.028865	-0.118479	71.924811	-35.167818	-11.681894			
29688		4.557466	6.774365	2.057870	-0.052866	0.020906	-0.134304	71.894451	-35.096119	-11.687083			
29689		4.532343	6.543805	1.882051	0.005770	0.092700	-0.175638	71.875961	-34.987537	-11.656030			
29690		4.577364	6.408979	1.883936	0.098904	0.194855	-0.257200	71.881774	-34.817843	-11.572574			
29691		4.893672	6.472837	1.938655	0.185566	0.342092	-0.345833	71.893490	-34.572159	-11.413335			
29692		5.051990	6.554104	1.977510	0.230413	0.499998	-0.428757	71.882612	-34.254703	-11.165927			
29693		5.214816	6.696838	2.062685	0.246288	0.659994	-0.496125	71.832430	-33.870404	-10.831471			
29694		5.390151	6.830085	2.110770	0.241408	0.838744	-0.555868	71.724690	-33.422770	-10.392767			
29695		5.362816	7.033475	2.385546	0.230147	1.028283	-0.607316	71.554689	-32.910487	-9.848240			
29696		5.143623	7.102138	2.521417	0.225923	1.161277	-0.659346	71.348839	-32.345896	-9.231794			
29697		4.824847	7.221869	2.671678	0.248132	1.255462	-0.713280	71.139094	-31.731133	-8.575900			
29698		4.515606	7.303528	2.773171	0.287006	1.263851	-0.773710	70.964978	-31.081897	-7.931990			
29699		4.438810	7.554836	2.838930	0.333712	1.200370	-0.835869	70.855043	-30.407856	-7.350686			
29700		4.338381	7.832821	2.864577	0.364722	1.076973	-0.883126	70.814551	-29.732390	-6.859251			
29701		4.172045	8.216652	2.952768	0.371515	0.883523	-0.916516	70.847610	-29.073630	-6.501087			
29702		4.421185	8.521841	2.952732	0.334246	0.665231	-0.933945	70.929569	-28.448127	-6.280598			
29703		4.531134	8.690884	2.868338	0.271609	0.476563	-0.924907	71.032128	-27.861630	-6.176543			
29704		4.523658	8.768628	2.840151	0.223552	0.300928	-0.893458	71.153787	-27.326278	-6.170430			
29705		4.753061	8.725476	2.806690	0.206074	0.209821	-0.852200	71.286860	-26.828813	-6.212086			
29706		4.850706	8.758889	2.767608	0.224187	0.206104	-0.816532	71.426477	-26.352580	-6.245123			
29707		4.846472	8.857263	2.827841	0.274129	0.250194	-0.787119	71.580006	-25.882963	-6.246087			
29708		4.824184	8.978299	2.853112	0.343512	0.308280	-0.759532	71.754543	-25.419210	-6.202844			
29709		4.777815	9.132759	2.889000	0.421633	0.356006	-0.739466	71.960109	-24.956666	-6.127532			
29710		4.564458	9.365802	2.931653	0.479142	0.372276	-0.698695	72.190576	-24.515126	-6.030633			
29711		4.184844	9.475788	2.999930	0.503990	0.340239	-0.656183	72.440269	-24.101350	-5.945335			
29712		3.842246	9.561290	2.994450	0.500737	0.242805	-0.621967	72.708442	-23.724692	-5.907925			
29713		3.463192	9.605048	2.911560	0.473813	0.124374	-0.594536	72.987373	-23.381882	-5.936490			
29714		3.321578	9.520915	2.862064	0.441933	-0.019839	-0.578110	73.279387	-23.073072	-6.044365			
29715		3.477980	9.476533	2.714267	0.399709	-0.132713	-0.561313	73.571491	-22.790280	-6.216442			
29716		3.673433	9.411415	2.499735	0.380022	-0.197615	-0.520763	73.862517	-22.540355	-6.416753			
29717		3.915825	9.412847	2.374439	0.365085	-0.222449	-0.453861	74.145388	-22.329329	-6.620225			
29718		4.161077	9.389580	2.255819	0.339380	-0.202434	-0.402572	74.404134	-22.143478	-6.800409			
29719		4.078581	9.279294	2.169705	0.321555	-0.159530	-0.362923	74.640130	-21.971354	-6.948776			
29720		3.852334	9.180675	2.089036	0.307991	-0.156418	-0.319469	74.863941	-21.823170	-7.085830			
29721		3.574729	9.123843	2.067726	0.288333	-0.184709	-0.293964	75.080996	-21.691872	-7.236395			
29722		3.380027	9.071389	2.006574	0.254564	-0.221693	-0.291387	75.285843	-21.567836	-7.406452			
29723		3.262780	8.947355	1.901535	0.211866	-0.253939	-0.313126	75.474205	-21.434936	-7.599973			
29724		3.131135	8.797672	1.703535	0.175811	-0.272574	-0.357773	75.647552	-21.280213	-7.809434			
29725		2.965362	8.578226	1.524200	0.169749	-0.262524	-0.422770	75.818160	-21.086535	-8.023370			
29726		2.847455	8.404035	1.339558	0.201121	-0.239736	-0.465454	76.003009	-20.866111	-8.227930			
29727		2.742925	8.356192	1.246388	0.278184	-0.210332	-0.496906	76.226369	-20.622698	-8.419711			
29728		2.857886	8.427770	1.166171	0.379528	-0.180452	-0.522347	76.501596	-20.360986	-8.594819			
29729		3.104030	8.657063	1.203831	0.456185	-0.132135	-0.542742	76.810400	-20.079996	-8.743489			
29730		3.204763	8.909161	1.187435	0.485860	-0.071844	-0.550906	77.123230	-19.786554	-8.854468			
29731		3.316896	9.052824	1.231970	0.445524	0.012170	-0.573177	77.395845	-19.468869	-8.917894			
29732		3.554051	9.210134	1.426396	0.350889	0.131348	-0.590296	77.591150	-19.127246	-8.910235			
29733		3.638820	9.399797	1.634426	0.186760	0.272238	-0.587558	77.664645	-18.769209	-8.819218			
29734		3.544821	9.546550	1.878919	-0.012221	0.393492	-0.579982	77.602056	-18.401297	-8.654398			
29735		3.348852	9.684067	1.953712	-0.224693	0.487896	-0.583724	77.401457	-18.018477	-8.437109			
29736		3.159487	9.624031	2.005916	-0.420126	0.567681	-0.589241	77.077383	-17.622338	-8.174564			
29737		2.970555	9.387819	2.097659	-0.546568	0.608347	-0.585988	76.675813	-17.220357	-7.892489			
29738		2.690466	8.855944	2.054690	-0.562894	0.599852	-0.604635	76.270567	-16.808038	-7.620085			
29739		2.491803	8.390873	1.966957	-0.446314	0.562828	-0.658065	75.942831	-16.368650	-7.381686			
29740		2.298595	8.315716	1.881820	-0.242568	0.507873	-0.750847	75.747499	-15.885153	-7.189804			
29741		2.355283	8.342381	1.849432	-0.043057	0.462078	-0.861715	75.679544	-15.345379	-7.043688			
29742		2.461107	8.493975	1.858771	0.114928	0.446425	-0.956692	75.710129	-14.755797	-6.919640			
29743		2.578534	8.851888	1.938292	0.188660	0.459757	-1.012020	75.783736	-14.132966	-6.797225			
29744		2.653331	9.154502	2.078482	0.150166	0.489535	-1.029196	75.833613	-13.497340	-6.658364			
29745		2.650499	9.283235	2.156741	0.009594	0.515383	-1.015949	75.800108	-12.864663	-6.504660			
29746		2.889329	9.316187	2.332806	-0.202570	0.566848	-0.995417	75.640626	-12.236759	-6.318449			
29747		3.326767	9.269811	2.578396	-0.450275	0.703739	-0.967541	75.324349	-11.603018	-6.055390			
29748		3.359074	9.046919	2.959590	-0.697315	0.871695	-0.921201	74.851080	-10.969564	-5.693409			
29749		2.890209	8.616714	3.229256	-0.850545	0.964916	-0.883148	74.283729	-10.338583	-5.281968			
29750		2.433583	8.185143	3.335643	-0.829661	0.971032	-0.917654	73.735023	-9.685194	-4.877034			
29751		2.151735	8.032918	3.585050	-0.642228	0.915453	-0.990257	73.305830	-8.996123	-4.524188			
29752		1.910215	8.285682	3.890239	-0.373489	0.799194	-1.059848	73.047402	-8.287730	-4.249430			
29753		1.713008	8.894096	4.139177	-0.140250	0.643436	-1.083865	72.938401	-7.589783	-4.070630			
29754		1.558327	9.858728	4.233690	0.005095	0.461313	-1.060710	72.927238	-6.936673	-3.986492			
29755		1.387785	11.040004	4.375806	0.019020	0.275941	-1.024701	72.935934	-6.332746	-4.001587			
29756		1.402290	11.531188	4.302978	-0.087889	0.108669	-0.975723	72.892033	-5.785507	-4.097784			
29757		1.509189	11.558573	4.178492	-0.218610	-0.008128	-0.895532	72.777359	-5.300355	-4.248169			
29758		1.532920	11.296229	3.984771	-0.314498	-0.083177	-0.810203	72.608860	-4.876768	-4.423363			
29759		1.567736	11.056320	3.789698	-0.337461	-0.121477	-0.744523	72.426999	-4.494488	-4.612308			
29760		1.487497	10.915027	3.768837	-0.305875	-0.132293	-0.717235	72.261993	-4.131398	-4.800407			
29761		1.649773	10.844576	3.756543	-0.254275	-0.083175	-0.717936	72.123734	-3.757987	-4.965724			
29762		1.664615	10.930446	3.847121	-0.182355	-0.006839	-0.718204	72.022856	-3.373322	-5.086744			
29763		1.464187	11.217145	3.857037	-0.128555	0.064506	-0.720540	71.950039	-2.972925	-5.173139			
29764		1.174730	11.370000	3.909311	-0.091287	0.106172	-0.706789	71.896592	-2.574917	-5.231073			
29765		0.895138	11.536697	3.906071	-0.050671	0.099658	-0.680058	71.866142	-2.190461	-5.291765			
29766		0.756108	11.678398	3.895834	-0.021138	0.067922	-0.643198	71.852417	-1.834073	-5.359424			
29767		0.657311	11.798953	3.871328	-0.002168	0.025569	-0.589730	71.849720	-1.512054	-5.444519			
29768		0.603526	11.934792	3.882603	-0.021642	-0.033121	-0.526503	71.835750	-1.237319	-5.546338			
29769		0.669391	11.998863	4.047983	-0.065180	-0.109990	-0.423059	71.797024	-1.030318	-5.675606			
29770		0.719340	12.385909	4.106605	-0.124334	-0.245083	-0.249427	71.724664	-0.944595	-5.843344			
29771		0.947400	12.224839	4.095328	-0.182306	-0.300434	-0.107967	71.619183	-0.943611	-6.019941			
29772		1.439600	12.035182	4.171197	-0.204007	-0.320662	-0.007982	71.501130	-1.003560	-6.185058			
29773		1.412695	12.053512	4.121746	-0.194275	-0.313197	0.025493	71.388775	-1.078097	-6.344257			
29774		1.588903	11.652793	4.168928	-0.198067	-0.272618	0.047821	71.273896	-1.160487	-6.472321			
29775		1.601662	11.411888	4.064228	-0.203394	-0.187669	0.063022	71.155178	-1.232863	-6.556194			
29776		1.521644	10.726445	3.890312	-0.227862	-0.102429	0.038100	71.021592	-1.279260	-6.592899			
29777		1.457350	9.968895	3.707462	-0.226417	0.000751	0.001501	70.887776	-1.283471	-6.585875			
29778		1.241523	9.336596	3.535376	-0.165712	0.070135	-0.026702	70.788022	-1.262812	-6.540660			
29779		0.869529	9.091800	3.412793	-0.102375	0.113941	-0.028933	70.724076	-1.229165	-6.478124			
29780		0.404709	8.997055	3.365484	-0.064130	0.119553	-0.039425	70.682044	-1.192356	-6.408339			
29781		0.132340	8.898440	3.195714	-0.046930	0.091511	-0.047102	70.650267	-1.153046	-6.361431			
29782		-0.125205	8.988729	3.057556	-0.057028	0.066276	-0.073052	70.613063	-1.108086	-6.326935			
29783		-0.219404	9.021548	2.954636	-0.077974	0.042629	-0.100744	70.564268	-1.049036	-6.316716			
29784		-0.213465	9.227914	2.967911	-0.104282	0.029035	-0.111345	70.500546	-0.990331	-6.309939			
29785		-0.248221	9.381455	2.901327	-0.156811	0.041518	-0.104540	70.406629	-0.929425	-6.301184			
29786		-0.135978	9.621238	2.979149	-0.200292	0.048048	-0.069416	70.287653	-0.889552	-6.276456			
29787		0.046928	9.779134	3.094568	-0.268737	0.071335	-0.017501	70.129119	-0.869751	-6.234996			
29788		0.130630	9.748743	3.308194	-0.323750	0.103873	0.051274	69.938660	-0.883774	-6.156910			
29789		0.214839	9.645234	3.429494	-0.358492	0.135162	0.110683	69.727749	-0.920039	-6.055923			
29790		0.292333	9.521689	3.602733	-0.361756	0.162051	0.140849	69.514635	-0.970021	-5.928653			
29791		0.257212	9.364908	3.741049	-0.339921	0.160411	0.142614	69.313853	-1.017590	-5.807418			
29792		0.321131	9.266100	3.928612	-0.314115	0.134685	0.128011	69.128108	-1.065401	-5.697114			
29793		0.337911	9.220779	4.039846	-0.259759	0.099632	0.107536	68.973810	-1.105885	-5.615289			
29794		0.305537	9.209459	4.100468	-0.196789	0.039592	0.071406	68.856281	-1.142472	-5.567304			
29795		0.330919	9.174707	4.073175	-0.125573	-0.028574	0.038645	68.780434	-1.172364	-5.568084			
29796		0.377596	9.228181	4.063983	-0.059055	-0.095825	0.005063	68.743477	-1.201502	-5.606179			
29797		0.413935	9.239452	3.946756	-0.000326	-0.140515	-0.026588	68.740942	-1.219819	-5.680258			
29798		0.506867	9.239801	3.818854	0.045997	-0.161090	-0.047757	68.765138	-1.234317	-5.764194			
29799		0.508962	9.329502	3.727459	0.067403	-0.154576	-0.060531	68.801757	-1.237370	-5.852836			
29800		0.496648	9.432437	3.577458	0.080464	-0.127671	-0.055683	68.845368	-1.240649	-5.920501			
29801		0.447764	9.567486	3.516335	0.061206	-0.095911	-0.057605	68.877750	-1.233026	-5.977181			
29802		0.378311	9.550291	3.491565	0.032314	-0.074869	-0.038435	68.893125	-1.234584	-6.012967			
29803		0.304285	9.555392	3.465803	0.001713	-0.057587	-0.025489	68.890836	-1.236193	-6.042523			
29804		0.299052	9.578518	3.462697	-0.023829	-0.039211	-0.005616	68.873535	-1.247940	-6.052434			
29805		0.293212	9.579528	3.489136	-0.046766	-0.028347	0.013598	68.842962	-1.264415	-6.058278			
29806		0.327492	9.515621	3.536361	-0.069164	-0.016170	0.028135	68.799308	-1.289435	-6.048862			
29807		0.344105	9.500339	3.599908	-0.071141	-0.006715	0.033441	68.754419	-1.312032	-6.039007			
29808		0.376795	9.414521	3.675347	-0.069345	0.004389	0.032973	68.710406	-1.335356	-6.017555			
29809		0.428040	9.379913	3.725687	-0.058924	0.005182	0.025128	68.672402	-1.351027	-6.003043			
29810		0.430495	9.298858	3.712831	-0.050391	0.003765	0.010916	68.639358	-1.362701	-5.986474			
29811		0.424363	9.220601	3.721670	-0.029099	-0.000696	-0.002747	68.618652	-1.364714	-5.980900			
29812		0.474092	9.209120	3.740444	-0.006007	-0.003564	-0.019359	68.611274	-1.361775	-5.974537			
29813		0.460901	9.256303	3.732386	0.010501	-0.004110	-0.035549	68.613465	-1.347003	-5.977638			
29814		0.425648	9.319047	3.689345	0.021115	-0.008444	-0.050818	68.621835	-1.328325	-5.980409			
29815		0.418564	9.286219	3.637503	0.038230	-0.012949	-0.057317	68.640126	-1.303786	-5.992766			
29816		0.433067	9.339370	3.608415	0.060857	-0.012894	-0.052386	68.671329	-1.285210	-5.998188			
29817		0.369630	9.433665	3.626583	0.061480	-0.010950	-0.047751	68.702865	-1.265352	-6.007458			
29818		0.374325	9.454915	3.571078	0.047885	-0.013400	-0.058970	68.726682	-1.243370	-6.014458			
29819		0.323890	9.443905	3.553691	0.040034	-0.011360	-0.060279	68.745986	-1.216903	-6.026531			
29820		0.306274	9.470891	3.569777	0.024821	-0.014162	-0.049900	68.756574	-1.199918	-6.032013			
29821		0.375315	9.454444	3.515711	0.010407	-0.010654	-0.039816	68.758800	-1.184231	-6.039448			
29822		0.346469	9.505953	3.553854	-0.006036	-0.002773	-0.030322	68.751524	-1.175342	-6.034750			
29823		0.360676	9.434972	3.567727	-0.034780	0.002075	-0.019343	68.727633	-1.167947	-6.031134			
29824		0.384917	9.395284	3.609374	-0.048489	0.011264	-0.018876	68.695860	-1.162258	-6.016535			
29825		0.395864	9.367780	3.595266	-0.058872	0.021418	-0.010185	68.657921	-1.155721	-6.000690			
29826		0.379407	9.369967	3.647332	-0.061371	0.025936	-0.007740	68.618581	-1.152919	-5.975903			
29827		0.400061	9.374208	3.659782	-0.061015	0.028789	-0.012550	68.579350	-1.143561	-5.956626			
29828		0.334808	9.421230	3.743248	-0.048717	0.025920	-0.008968	68.547280	-1.140099	-5.932076			
29829		0.337122	9.374904	3.778218	-0.034274	0.015684	-0.003029	68.523475	-1.138547	-5.917799			
29830		0.361114	9.401623	3.760442	-0.021685	0.008295	0.002449	68.507028	-1.144856	-5.900253			
29831		0.379287	9.351974	3.746670	-0.011561	0.007730	-0.002230	68.496318	-1.145395	-5.890048			
29832		0.364562	9.264199	3.699670	-0.007318	0.009265	-0.011042	68.488145	-1.144314	-5.874802			
29833		0.349706	9.289788	3.719054	0.005488	0.008570	-0.023101	68.487285	-1.133552	-5.868531			
29834		0.326354	9.305034	3.684748	0.007875	0.007047	-0.027320	68.487909	-1.124266	-5.857874			
29835		0.332606	9.324611	3.633944	0.004675	0.003106	-0.033782	68.486688	-1.108962	-5.856759			
29836		0.329194	9.324840	3.633668	0.001557	0.005684	-0.035975	68.483753	-1.095351	-5.848635			
29837		0.329135	9.367604	3.579705	-0.005055	0.002925	-0.041468	68.476991	-1.075992	-5.849231			
29838		0.370065	9.380187	3.594345	-0.023352	0.004965	-0.045908	68.459851	-1.057243	-5.843563			
29839		0.354248	9.325811	3.598550	-0.041511	0.009069	-0.042667	68.432149	-1.035954	-5.841145			
29840		0.360769	9.277623	3.610141	-0.039284	0.020048	-0.046152	68.405762	-1.013913	-5.827464			
29841		0.365550	9.308467	3.639526	-0.032779	0.030855	-0.036509	68.382840	-0.991309	-5.812157			
29842		0.385259	9.347991	3.698421	-0.031044	0.036914	-0.042869	68.361031	-0.967465	-5.788778			
29843		0.336614	9.368099	3.737019	-0.026427	0.040466	-0.045516	68.341711	-0.938025	-5.770270			
29844		0.280026	9.377818	3.721987	-0.018272	0.039851	-0.047365	68.327233	-0.911170	-5.746259			
29845		0.237054	9.374932	3.763003	-0.009812	0.028803	-0.042273	68.317540	-0.885920	-5.733288			
29846		0.266129	9.434860	3.769040	0.003625	0.018251	-0.039574	68.315774	-0.867772	-5.719150			
29847		0.278967	9.465200	3.771270	0.010227	0.010050	-0.034939	68.317699	-0.850398	-5.714612			
29848		0.248611	9.516648	3.808734	0.013640	0.014796	-0.040957	68.321712	-0.832243	-5.702604			
29849		0.240754	9.562032	3.776734	0.010287	0.016566	-0.030665	68.323613	-0.815769	-5.693687			
29850		0.205982	9.536620	3.818976	0.015755	0.010153	-0.020075	68.328816	-0.809708	-5.679740			
29851		0.249398	9.550472	3.830762	0.019302	0.005124	-0.008304	68.335906	-0.807566	-5.672179			
29852		0.385259	9.412087	3.858659	0.045738	0.014355	-0.015785	68.358242	-0.802892	-5.655105			
29853		0.576929	9.476158	3.936064	0.089540	0.046983	-0.034587	68.405349	-0.777924	-5.630789			
29854		0.704993	9.433241	4.050924	0.143898	0.083423	-0.064519	68.483576	-0.732810	-5.587065			
29855		1.009307	9.568288	4.178230	0.213546	0.135224	-0.105621	68.601387	-0.651540	-5.530509			
29856		1.484290	9.761720	4.353851	0.288981	0.235883	-0.175639	68.762227	-0.515656	-5.428108			
29857		1.847585	9.938127	4.519633	0.391099	0.373721	-0.258275	68.981360	-0.303875	-5.275148			
29858		2.198302	10.145945	4.649017	0.548829	0.498384	-0.305082	69.291376	-0.046239	-5.056902			
29859		2.222235	10.553269	4.818418	0.740657	0.632272	-0.317737	69.712384	0.247629	-4.774795			
29860		2.173819	11.099512	5.032747	0.939977	0.745331	-0.299756	70.249514	0.547192	-4.417831			
29861		2.107482	12.252008	5.485287	1.052981	0.831193	-0.247008	70.853909	0.835574	-4.009392			
29862		1.876545	13.325455	5.572785	1.063812	0.863312	-0.166199	71.466853	1.076788	-3.556616			
29863		1.719718	13.568395	5.221867	1.120743	0.861122	-0.042950	72.114639	1.250563	-3.089143			
29864		1.208058	14.221407	5.222812	1.228507	0.831868	0.071751	72.825137	1.345681	-2.606102			
29865		0.779686	15.437802	5.572731	1.220802	0.651836	0.267444	73.530198	1.303153	-2.197855			
29866		0.746276	16.019496	5.539519	1.125893	0.397705	0.539214	74.177452	1.060090	-1.876567			
29867		0.714652	15.825656	5.341395	1.016795	0.152357	0.782374	74.759327	0.647485	-1.666191			
29868		1.010673	15.191950	5.072916	0.944851	-0.035169	0.990296	75.297151	0.084157	-1.522417			
29869		1.383091	14.415222	4.956130	0.898533	-0.137090	1.173698	75.807705	-0.590858	-1.424560			
29870		1.474327	13.776818	4.866538	0.844332	-0.193262	1.341985	76.285506	-1.374099	-1.329637			
29871		1.469719	13.012561	4.731062	0.775024	-0.241100	1.494023	76.723476	-2.243026	-1.258087			
29872		1.457664	12.228067	4.646519	0.701795	-0.276599	1.626480	77.117876	-3.197242	-1.184282			
29873		1.205023	11.610387	4.499444	0.623878	-0.352780	1.723608	77.469821	-4.209474	-1.158174			
29874		0.973200	11.020708	4.349401	0.509945	-0.475361	1.811446	77.760115	-5.292383	-1.184516			
29875		0.913018	10.499222	4.186031	0.367656	-0.636417	1.901636	77.979431	-6.438707	-1.306721			
29876		0.780684	10.025413	4.059503	0.174266	-0.834095	1.975084	78.102067	-7.655506	-1.524616			
29877		0.797920	9.406109	3.868227	-0.037142	-1.033975	2.019385	78.125805	-8.914247	-1.863599			
29878		0.958646	8.629217	3.664150	-0.240818	-1.201941	2.011077	78.054659	-10.194300	-2.289345			
29879		0.911632	8.134089	3.591535	-0.421597	-1.355157	1.947328	77.908897	-11.451759	-2.819903			
29880		1.020321	7.489095	3.283848	-0.555309	-1.501364	1.843290	77.715706	-12.675910	-3.435753			
29881		1.082260	6.626609	2.779194	-0.585552	-1.605780	1.702594	77.537389	-13.830392	-4.138076			
29882		0.827926	6.758596	4.149567	-0.672258	-1.718959	1.506314	77.342847	-14.896962	-4.921116			
29883		2.682213	5.510701	0.571770	-0.482246	-1.545790	1.351876	77.251791	-15.851771	-5.634266			
29884		2.462882	3.859141	2.773217	-0.524591	-1.129854	0.964807	77.091201	-16.544442	-6.148252			
29885		2.642157	2.361214	-3.598157	0.217796	-0.246587	0.075592	77.248526	-16.622473	-6.275640			
29886		2.591289	8.562393	4.167549	0.406731	-0.124581	0.368649	77.481174	-16.854549	-6.283819			
29887		1.695836	9.964678	4.097597	-0.997350	-0.682341	0.547673	76.999758	-17.251379	-6.603834			
29888		-0.047193	8.280182	2.628580	-1.827012	-1.119425	0.793275	76.108924	-17.852541	-7.131550			
29889		-0.346481	5.675828	2.329818	-1.971934	-1.431209	0.778111	75.197735	-18.491929	-7.844925			
29890		-0.132380	5.397898	1.537094	-2.130724	-2.071063	0.503601	74.332440	-19.091319	-8.959635			
29891		0.546952	3.050872	-0.129883	-1.397604	-2.247198	0.249925	73.946551	-19.585081	-10.224077			
29892		1.091970	3.530153	0.348498	-0.542792	-2.303106	-0.177912	74.092278	-19.859241	-11.587464			
29893		2.657712	5.294359	0.101380	0.159919	-2.153403	-0.339924	74.627768	-20.008467	-12.900496			
29894		2.977200	7.259262	0.354462	0.578984	-1.771216	-0.376415	75.329748	-20.072280	-13.989173			
29895		2.722587	9.365150	0.781226	0.591450	-1.388478	-0.348730	75.962340	-20.080223	-14.855898			
29896		2.457414	10.214232	0.885759	0.259232	-1.079552	-0.281598	76.337327	-20.080874	-15.522311			
29897		1.933816	10.115920	1.235897	-0.228024	-0.924015	-0.225889	76.399882	-20.084239	-16.096080			
29898		1.942586	9.649265	1.423670	-0.738981	-0.911028	-0.195866	76.177090	-20.120611	-16.557248			
29899		2.293990	8.549826	1.480510	-1.169427	-0.912830	-0.193442	75.696852	-20.144544	-17.119684			
29900		2.689495	7.519416	1.396170	-1.454640	-0.886430	-0.235618	75.062126	-20.163450	-17.570873			
29901		3.072777	6.685328	1.255959	-1.545728	-0.780721	-0.307579	74.345685	-20.115724	-18.073222			
29902		2.938233	5.834285	1.089299	-1.440867	-0.661433	-0.420524	73.684063	-20.009999	-18.419089			
29903		2.650226	5.648125	1.016372	-1.154555	-0.553582	-0.539311	73.158504	-19.808487	-18.829306			
29904		2.423720	6.258668	1.225067	-0.865930	-0.478291	-0.684721	72.804309	-19.535221	-19.114406			
29905		2.389103	7.344966	1.727535	-0.770320	-0.391199	-0.792013	72.479634	-19.173054	-19.477695			
29906		2.410765	8.088166	1.895916	-0.858386	-0.345152	-0.828030	72.110054	-18.802900	-19.712285			
29907		2.294606	8.185911	1.976475	-0.936991	-0.309451	-0.812897	71.672774	-18.419355	-20.035837			
29908		2.114701	8.087505	1.939703	-0.880175	-0.307698	-0.772332	71.278909	-18.078051	-20.235233			
29909		1.867182	8.067965	2.010745	-0.688078	-0.336268	-0.713197	70.980515	-17.757671	-20.558642			
29910		1.679475	8.649202	2.344146	-0.501599	-0.385548	-0.674509	70.808275	-17.486239	-20.789206			
29911		1.626640	9.232126	2.539355	-0.414847	-0.441054	-0.656774	70.678154	-17.218293	-21.162024			
29912		1.524074	9.583310	2.711032	-0.394856	-0.488566	-0.615698	70.563185	-16.985738	-21.548778			
29913		1.569740	10.038254	2.741903	-0.425402	-0.510375	-0.576949	70.430886	-16.775698	-21.945018			
29914		1.688983	10.076762	2.713779	-0.488975	-0.493118	-0.535400	70.255520	-16.588840	-22.318966			
29915		1.608479	10.073096	2.859376	-0.541393	-0.463181	-0.533009	70.044275	-16.395603	-22.680278			
29916		1.726105	9.936616	2.830755	-0.577043	-0.433433	-0.563424	69.808477	-16.184272	-23.027565			
29917		1.864369	9.713432	2.904948	-0.578321	-0.360012	-0.603068	69.561739	-15.935688	-23.346516			
29918		1.390410	9.698286	3.169159	-0.595606	-0.351225	-0.661101	69.305863	-15.658084	-23.669737			
29919		1.450264	9.571126	2.948246	-0.611671	-0.403108	-0.702092	69.049468	-15.367972	-24.034982			
29920		1.726589	9.390137	2.779955	-0.603311	-0.403150	-0.663079	68.794254	-15.102542	-24.389497			
29921		1.676488	9.180602	2.690303	-0.528917	-0.385175	-0.566692	68.572395	-14.884016	-24.717311			
29922		1.496696	9.124308	2.721125	-0.414291	-0.353222	-0.497403	68.407054	-14.698849	-25.009803			
29923		1.369332	9.279510	2.851010	-0.321668	-0.366778	-0.459790	68.293598	-14.535209	-25.304877			
29924		1.575782	9.247844	2.723137	-0.251970	-0.342726	-0.436933	68.215041	-14.380963	-25.578908			
29925		1.698445	9.180556	2.673502	-0.178838	-0.229794	-0.461826	68.163328	-14.187885	-25.799267			
29926		1.720194	9.522711	2.737599	-0.139837	-0.089473	-0.491100	68.116448	-13.951196	-25.946311			
29927		1.510290	9.694646	2.935068	-0.127565	0.029858	-0.510640	68.060962	-13.677029	-26.035179			
29928		1.376616	9.957963	3.144529	-0.125074	0.093125	-0.508749	67.998904	-13.391949	-26.086536			
29929		1.344328	10.066504	3.300805	-0.151925	0.112229	-0.461333	67.915918	-13.126456	-26.120005			
29930		1.157607	9.883772	3.266121	-0.123446	0.107177	-0.383128	67.846551	-12.904947	-26.136762			
29931		1.114327	9.733825	3.356933	-0.068958	0.091036	-0.327848	67.806964	-12.714938	-26.152721			
29932		1.326422	9.617503	3.263749	-0.002723	0.071872	-0.262405	67.805088	-12.564904	-26.162451			
29933		1.966109	12.103758	4.792737	-0.059300	-0.026317	-0.065392	67.772193	-12.539543	-26.184057			
29934		1.755190	15.651501	6.193737	-0.733702	-0.273568	0.262734	67.366930	-12.743011	-26.264511			
29935		2.137896	9.886679	2.842465	-0.544743	-0.165162	0.465456	67.045906	-13.029086	-26.240765			
29936		1.495823	9.699210	4.150416	-0.339129	-0.154666	0.300165	66.850417	-13.226271	-26.246353			
29937		2.595496	8.183422	3.891543	-0.011588	-0.177772	0.155171	66.852355	-13.351571	-26.299383			
29938		2.673064	7.328612	3.638053	0.363632	-0.112692	-0.024143	67.071515	-13.368282	-26.357169			
29939		2.799136	7.954803	3.909908	0.660200	-0.065840	-0.140405	67.460116	-13.312227	-26.417613			
29940		2.846636	8.853251	4.258331	0.734068	-0.085375	-0.151459	67.894544	-13.254908	-26.489063			
29941		2.638839	9.492340	4.319329	0.602492	-0.138946	-0.139424	68.258869	-13.214188	-26.588361			
29942		2.581489	10.106047	4.322836	0.354560	-0.202226	-0.088323	68.486994	-13.214355	-26.709313			
29943		2.594578	10.519061	4.300959	0.043763	-0.245934	-0.000450	68.537689	-13.269448	-26.836925			
29944		2.543798	10.096270	4.205937	-0.159938	-0.295347	0.111354	68.473068	-13.395313	-26.965955			
29945		2.542628	9.827842	4.130274	-0.134028	-0.305219	0.178904	68.420944	-13.558604	-27.087293			
29946		2.511230	10.058021	4.251223	-0.018319	-0.307464	0.178260	68.436247	-13.722818	-27.208541			
29947		2.522450	10.277589	4.280438	0.119636	-0.299837	0.160271	68.530446	-13.874972	-27.331229			
29948		2.556495	10.731443	4.134657	0.227284	-0.260121	0.156171	68.682084	-14.017084	-27.432023			
29949		2.428515	11.153695	4.178289	0.279742	-0.219819	0.196110	68.856264	-14.171181	-27.503920			
29950		2.336432	11.481524	4.120231	0.267663	-0.201926	0.244391	69.019289	-14.347815	-27.554981			
29951		2.432108	11.547139	4.050160	0.235635	-0.175148	0.304851	69.156988	-14.550586	-27.580222			
29952		2.499982	11.478248	4.072662	0.170905	-0.130244	0.364498	69.248744	-14.776595	-27.567458			
29953		2.542487	11.045546	3.929928	0.117355	-0.096548	0.412700	69.302031	-15.021144	-27.527222			
29954		2.583653	10.561582	3.868944	0.126699	-0.065221	0.472777	69.353122	-15.291953	-27.456296			
29955		2.608615	10.298343	3.821531	0.171282	-0.058357	0.518113	69.425520	-15.585408	-27.373156			
29956		2.564740	10.000458	3.907331	0.217760	-0.077768	0.554556	69.525488	-15.902707	-27.292823			
29957		2.508036	9.772561	3.838679	0.260253	-0.125920	0.565763	69.655916	-16.235529	-27.238347			
29958		2.689661	9.667389	3.819718	0.282281	-0.170355	0.558599	69.806660	-16.573613	-27.210477			
29959		2.898477	9.541393	3.795354	0.283589	-0.198454	0.543594	69.963359	-16.909064	-27.202911			
29960		2.888369	9.350380	3.761619	0.279274	-0.208413	0.536344	70.120169	-17.242676	-27.203015			
29961		2.935002	9.192055	3.667405	0.268532	-0.234297	0.528553	70.275697	-17.577012	-27.220651			
29962		3.110393	8.902719	3.484451	0.299946	-0.251686	0.536847	70.452318	-17.919169	-27.247289			
29963		3.169340	8.891929	3.323811	0.342243	-0.239285	0.538683	70.651223	-18.259818	-27.267965			
29964		3.159596	8.623194	3.141297	0.387442	-0.212122	0.516685	70.873194	-18.583414	-27.278705			
29965		3.135861	8.558686	3.066715	0.460253	-0.185205	0.476682	71.134856	-18.880222	-27.283570			
29966		3.002418	8.813828	3.180807	0.506074	-0.184953	0.439948	71.445617	-19.172380	-27.160128			
29967		3.038120	8.984124	3.068562	0.485172	-0.202215	0.433152	71.728684	-19.448574	-27.186302			
29968		3.010238	9.145465	2.994789	0.451716	-0.215359	0.475127	71.993050	-19.749778	-27.213689			
29969		2.937669	9.177083	2.970334	0.389108	-0.234310	0.529461	72.222477	-20.083899	-27.243211			
29970		2.944230	9.036449	2.852161	0.352570	-0.250510	0.568935	72.432311	-20.442117	-27.276542			
29971		3.008252	9.040320	2.962485	0.312033	-0.263144	0.585679	72.621180	-20.811711	-27.315314			
29972		3.141027	8.936903	2.872625	0.284046	-0.243784	0.576775	72.791146	-21.172753	-27.346151			
29973		3.169842	9.040387	2.760642	0.248386	-0.207236	0.546405	72.935544	-21.511185	-27.361693			
29974		3.302497	8.929326	2.601770	0.237292	-0.131494	0.504026	73.060205	-21.813313	-27.341716			
29975		3.178379	9.208773	2.707713	0.240660	-0.063557	0.477365	73.173840	-22.089917	-27.286394			
29976		3.073897	9.347728	2.850232	0.231862	-0.062370	0.481249	73.281699	-22.368101	-27.230889			
29977		3.197762	9.598438	2.908976	0.205114	-0.100277	0.518147	73.380379	-22.673314	-27.191024			
29978		3.313477	9.546515	2.928960	0.162218	-0.135085	0.535135	73.461132	-22.992977	-27.170345			
29979		3.482687	9.335679	2.806403	0.138605	-0.146639	0.539725	73.530991	-23.317695	-27.155132			
29980		3.554085	9.229202	2.844113	0.154463	-0.143702	0.530118	73.609753	-23.635905	-27.141553			
